File: data/SEM_Raman_Data/KZPd_180109-2/Sample_20180109-2_2.txt
672.793	4.99932
676.3017	10.3425
679.809	1.42341
683.316	7.6172
686.818	8.0488
690.322	5.96903
693.824	8.12778
697.325	2.15024
700.825	2.53662
704.321	4.2868
707.8175	0.901579
711.313	1.00583
714.807	0.849748
718.3	1.93352
721.789	3.507057
725.279	2.94607
728.768	3.00046
732.255	1.67041
735.7392	3.33085
739.224	1.60743
742.707	6.74338e-05
746.187	4.13372
749.668	3.13397
753.147	4.37578
756.623	8.10909
760.1	5.834465
763.575	6.05186
767.047	6.51122
770.519	8.2131
773.9906	6.28243
777.4585	5.84419
780.927	9.64887
784.394	9.821455
787.858	9.11189
791.323	8.27066
794.784	12.1726
798.246	13.6931
801.705	9.95699
805.164	10.5897
808.6217	7.96631
812.076	15.0867
815.532	9.82627
818.984	15.30991
822.436	14.038
825.885	13.51037
829.335	12.47742
832.782	10.439
836.229	9.39548
839.673	13.5967
843.118	11.0431
846.559	16.4844
849.999	8.67094
853.44	13.4779
856.878	11.5302
860.316	11.32803
863.75	9.74642
867.186	10.7856
870.618	10.3205
874.049	11.7263
877.48	12.0032
880.909	12.5261
884.335	13.29521
887.763	15.9356
891.187	15.0723
894.612	13.5806
898.034	15.46022
901.454	14.3365
904.873	15.4595
908.293	15.0793
911.709	14.9459
915.124	16.8094
918.54	15.045
921.953	21.4026
925.364	24.8824
928.774	31.98436
932.184	42.3337
935.592	56.1804
938.998	69.8995
942.402	80.3661
945.8078	73.8303
949.21	74.7922
952.611	77.3767
956.01	75.459
959.409	76.5391
962.805	75.7421
966.203	74.5682
969.597	77.7672
972.99	71.0892
976.3822	74.0344
979.773	77.47773
983.162	67.6693
986.55	66.3592
989.936	47.7974
993.324	36.9841
996.708	33.1691
1000.09	28.6027
1003.47	25.1598
1006.852	21.3404
1010.23	21.3947
1013.61	16.0727
1016.98	17.2495
1020.36	14.925
1023.73	11.8493
1027.11	14.02242
1030.48	7.94448
1033.85	8.36548
1037.22	9.41046
1040.58	6.20445
1043.95	4.1225
1047.31	5.78964
1050.68	3.330914
1054.04	6.12135
1057.4	7.160985
1060.76	4.699832
1064.12	3.987968
1067.47	5.2754
1070.83	3.43717
1074.18	3.3483
1077.54	2.25883
1080.89	2.668777
1084.24	4.20318
1087.59	4.73704
1090.937	2.77043
1094.28	1.30335
1097.63	5.21084
1100.97	2.49292
1104.32	0.774608
1107.66	4.30592
1111	4.211904
1114.34	3.61758
1117.68	2.89796
1121.01	3.17805
1124.35	5.20791
1127.68	3.61255
1131.014	7.89197
1134.344	4.29619
1137.67	5.200263
1141.004	3.97918
1144.33	3.25795
1147.66	2.66163
1150.98	7.44021
1154.31	5.96869
1157.63	1.49713
1160.95	4.65051
1164.27	1.42885
1167.59	5.58219
1170.91	1.98552
1174.22	3.76385
1177.54	1.91721
1180.85	3.0706
1184.16	2.09905
1187.47	3.50256
1190.78	2.65613
1194.09	2.6848
1197.4	0.963541
1200.71	-0.00759296
1204.01	2.64637
1207.31	3.80048
1210.615	0.579699
1213.92	4.73408
1217.22	4.2636
1220.52	1.29329
1223.81	2.82313
1227.11	4.728158
1230.4	0.00835482
1233.7	4.53875
1236.99	0.194333
1240.28	3.47511
1243.57	4.00611
1246.86	0.412307
1250.15	2.44374
1253.43	3.85037
1256.71	1.25723
1259.999	0.289337
1263.28	1.44666
1266.56	0.979239
1269.84	2.01204
1273.12	0.420088
1276.4	3.9534
1279.67	0.4869436
1282.95	3.39574
1286.22	2.17979
1289.49	0.589114
1292.76	2.748678
1296.03	2.5335
1299.304	5.19361
1302.57	3.60395
1305.84	5.38956
1309.1	3.67543
1312.37	4.33658
1315.63	2.99798
1318.89	5.65963
1322.15	4.57156
1325.41	3.35874
1328.67	5.52121
1331.92	8.93391
1335.18	12.3469
1338.43	17.1351
1341.68	21.7986
1344.93	20.8373
1348.18	20.3763
1351.43	19.6656
1354.68	17.2051
1357.93	10.8698
1361.17	10.2848
1364.42	11.575
1367.66	9.74051
1370.9	6.15623
1374.14	5.69717
1377.38	5.36336
1380.616	4.27976
1383.85	3.5714
1387.09	5.73826
1390.322	3.65534
1393.55	4.44764
1396.79	5.36515
1400.02	4.907865
1403.25	2.450789
1406.47	4.49391
1409.7	6.91224
1412.93	4.33075
1416.15	2.99946
1419.38	3.79335
1422.6	1.08742
1425.82	2.25667
1429.04	1.80109
1432.25	1.59565
1435.47	2.2654
1438.69	3.68531
1441.9	1.980366
1445.12	2.15058
1448.33	4.32093
1451.54	2.8664
1454.75	5.16202
1457.96	5.08278
1461.17	3.25366
1464.37	4.29966
1467.58	2.59574
1470.78	4.76697
1473.98	5.31329
1477.19	4.48471
1480.39	4.0312
1483.58	4.57781
1486.78	3.37449
1489.98	2.54626
1493.17	3.71807
1496.37	5.01497
1499.563	6.81193
1502.75	3.23393
1505.94	5.28099
1509.14	5.82811
1512.32	4.87524
1515.51	5.04742
1518.7	4.71964
1521.88	8.01685
1525.06	7.56411
1528.25	5.48635
1531.43	7.53363
1534.61	5.2059
1537.79	8.753149
1540.96	9.17541
1544.14	7.47263
1547.32	10.2699
1550.489	10.067
1553.66	10.2392
1556.83	15.78631
1560	16.9584
1563.17	23.8804
1566.34	29.3024
1569.51	40.2243
1572.675	50.7712
1575.84	69.443
1579	86.4897
1582.16	108.0363
1585.32	113.208
1588.49	94.1293
1591.64	74.0507
1594.8	53.7219
1597.96	39.5181
1601.11	31.1891
1604.27	21.1101
1607.42	18.40588
1610.57	15.9516
1613.72	12.8721
1616.871	14.9175
1620.02	13.33782
1623.17	9.25798
1626.31	9.92796
1629.46	10.0978
1632.6	5.76748
1635.74	5.93698
1638.88	5.73132
1642.02	4.40049
1645.16	4.4445
1648.3	3.98831
1651.44	6.15693
1654.57	4.45037
1657.7	3.7436
1660.84	6.16167
1663.97	3.45451
1667.1	5.24714
1670.23	2.66456
1673.36	4.20676
1676.48	1.62375
1679.61	2.04054
1682.74	6.08207
1685.86	-0.0016188
1688.98	3.41445
1692.1	1.83029
1695.22	4.12088
1698.34	2.03623
1701.46	4.32633
1704.58	4.61617
1707.69	3.90576
1710.81	0.195093
1713.92	2.98416
1717.03	3.52296
1720.14	4.5615
1723.25	3.09976
1726.36	3.76275
1729.47	4.30045
1732.58	3.21288
1735.68	2.25002
1738.78	3.66188
1741.89	2.94845
1744.99	2.35972
1748.09	3.3957
1751.19	2.18138
1754.29	2.71676
1757.39	2.00183
1760.48	4.41159
1763.58	2.94605
1766.67	2.23021
1769.76	4.76405
1772.85	2.67258
1775.94	2.70579
1779.03	3.61366
1782.12	4.39624
1785.21	4.55349
1788.29	3.33542
1791.379	2.74202
1794.46	1.77327
1797.54	5.42922
1800.63	3.83483
1803.7	3.36509
1806.78	3.14504
1809.86	3.92465
1812.94	2.82893
1816.01	4.23285
1819.09	4.51144
1822.16	2.5397
1825.23	3.6926
1828.31	5.09517
1831.38	3.9974
1834.44	3.399271
1837.51	4.17581
1840.58	3.95199
1843.64	3.85284
1846.71	4.00334
1849.77	3.15347
1852.83	3.80328
1855.89	3.07771
1858.95	2.60182
1862.01	4.37556
1865.07	4.39896
1868.125	4.922
1871.18	5.3197
1874.23	4.59204
1877.29	5.36404
1880.34	4.88568
1883.39	3.531981
1886.44	2.927917
1889.49	3.07351
1892.54	2.71875
1895.58	3.86365
1898.63	4.00818
1901.67	3.15237
1904.72	4.79622
1907.76	1.93971
1910.8	3.83286
1913.84	4.10066
1916.88	3.4931
1919.91	3.635216
1922.95	3.026974
1925.98	5.29339
1929.02	3.80947
1932.052	3.57519
1935.08	2.09058
1938.11	3.35563
1941.14	3.99534
1944.17	2.884712
1947.2	4.77374
1950.23	3.16244
1953.25	3.30081
1956.28	3.31384
1959.3	3.326535
1962.32	4.3389
1965.34	2.85094
1968.36	3.98766
1971.38	5.12404
1974.4	2.8851
1977.41	4.02084
1980.43	4.53126
1983.44	4.54136
1986.46	4.05114
1989.469	3.56061
1992.48	4.56976
1995.49	3.7036
1998.498	3.46214
2001.51	2.59536
2004.512	3.97828
2007.52	5.1109
2010.52	5.11821
2013.52	5.00022
2016.527	4.38194
2019.53	4.26337
2022.528	4.3945
2025.527	3.90034
2028.52	3.65589
2031.52	3.53616
2034.52	3.66615
2037.51	2.79585
2040.51	0.925283
2043.5	2.42944
2046.49	2.05832
2049.478	3.811924
2052.47	2.94027
2055.46	2.06835
2058.44	2.94616
2061.43	2.32372
2064.41	3.07602
2067.4	2.45307
2070.38	2.57986
2073.36	2.95641
2076.34	3.58271
2079.32	3.58377
2082.3	4.5846
2085.28	3.96018
2088.25	2.08553
2091.23	2.96066
2094.2	1.71055
2097.17	1.960224
2100.146	2.45967
2103.12	1.833907
2106.09	1.58293
2109.05	2.58173
2112.02	2.08033
2114.99	1.45372
2117.95	2.826915
2120.92	4.19991
2123.88	3.322706
2126.844	1.44531
2129.804	2.56773
2132.76	1.81496
2135.72	1.56201
2138.68	3.18388
2141.64	3.68058
2144.59	1.8021
2147.55	1.17346
2150.5	3.669647
2153.46	2.91567
2156.41	1.66155
2159.36	1.65726
2162.31	3.27783
2165.25	1.89824
2168.2	0.6435172
2171.15	1.26365
2174.09	1.133644
2177.04	0.753503
2179.98	2.37324
2182.92	2.36784
2185.86	2.61232
2188.8	1.10668
2191.74	2.22593
2194.68	1.72006
2197.61	1.58909
2200.551	2.83301
2203.48	2.20183
2206.418	2.57055
2209.35	2.93917
2212.28	0.807707
2215.21	4.30116
2218.14	2.41952
2221.07	1.5378
2224	1.40601
2226.92	1.14915
2229.85	3.64221
2232.77	1.88521
2235.69	0.00314652
2238.62	1.62103
2241.54	1.738852
2244.46	1.98162
2247.38	2.84935
2250.29	1.342029
2253.21	0.83467
2256.13	1.57727
2259.04	3.56985
2261.95	1.93738
2264.87	2.1799
2267.78	1.92239
2270.69	2.78986
2273.6	1.90732
2276.51	2.274761
2279.41	0.517197
2282.32	1.25963
2285.22	1.75206
2288.13	1.244486
2291.031	3.23692
2293.93	2.72937
2296.834	0.8468219
2299.73	1.21429
2302.63	1.08178
2305.53	2.1993
2308.43	1.31684
2311.32	2.0594
2314.22	2.052
2317.11	0.794641
2320.01	0.537316
2322.9	1.53004
2325.79	2.8978
2328.676	1.89061
2331.56	0.758478
2334.45	2.6264
2337.34	1.24438
2340.23	0.487418
2343.11	1.48053
2345.99	1.4737
2348.87	2.71695
2351.76	2.46027
2354.64	1.45367
2357.52	1.82215
2360.39	2.190711
2363.27	1.68436
2366.15	2.0531
2369.02	1.42193
2371.9	0.790863
2374.77	1.03489
2377.64	1.02902
2380.51	0.898254
2383.38	0.392597
2386.25	3.762048
2389.12	1.00661
2391.99	0.00129434
2394.853	-0.00390752
2397.72	1.86601
2400.58	2.986059
2403.45	1.85623
2406.31	2.85153
2409.17	1.221965
2412.03	1.09253
2414.89	2.713239
2417.74	2.209085
2420.6	3.58007
2423.46	2.57621
2426.31	3.82248
2429.16	2.19391
2432.02	5.19049
2434.87	2.93723
2437.72	4.559123
2440.57	4.05618
2443.42	4.42839
2446.27	6.800765
2449.11	3.92331
2451.96	9.04602
2454.8	8.9189
2457.65	9.91695
2460.49	11.5402
2463.33	6.78858
2466.17	8.41216
2469.01	6.53592
2471.85	6.15987
2474.69	5.409
2477.53	5.15831
2480.36	4.90781
2483.19	4.40751
2486.03	5.40739
2488.86	2.532464
2491.69	6.40773
2494.52	4.2832
2497.35	4.65887
2500.18	2.28473
2503.01	3.1608
2505.84	5.03707
2508.66	2.41354
2511.49	3.41522
2514.31	3.0421
2517.13	3.4192
2519.95	1.4215
2522.78	2.92401
2525.59	3.80174
2528.41	1.92968
2531.23	4.43283
2534.05	2.8112
2536.86	3.06479
2539.68	3.44359
2542.491	2.19762
2545.3	2.70186
2548.12	3.08132
2550.93	2.83601
2553.74	4.46591
2556.54	4.34604
2559.35	2.226397
2562.16	0.981976
2564.96	3.48778
2567.77	3.61881
2570.57	2.25007
2573.375	2.38155
2576.177	3.01326
2578.978	2.6452
2581.78	3.02737
2584.58	2.90977
2587.375	1.792399
2590.17	2.80026
2592.97	2.558341
2595.762	2.94166
2598.56	4.70021
2601.35	4.20899
2604.14	3.468
2606.93	4.60224
2609.72	2.61171
2612.51	5.12142
2615.3	8.00634
2618.09	5.266511
2620.87	5.40191
2623.658	7.03754
2626.44	8.42339
2629.22	10.3095
2632.01	9.69579
2634.79	10.7073
2637.57	13.5941
2640.35	16.7311
2643.13	19.2434
2645.9	20.3808
2648.68	26.6435
2651.45	29.9064
2654.23	35.2946
2657	46.5579
2659.77	55.4465
2662.55	74.5853
2665.32	85.3494
2668.09	107.614
2670.85	129.253
2673.62	139.393
2676.39	154.908
2679.15	169.298
2681.92	175.938
2684.68	179.704
2687.45	185.095
2690.21	164.486
2692.968	157.252
2695.73	145.143
2698.49	123.41
2701.24	109.802
2704.001	90.4438
2706.76	81.0861
2709.51	65.3536
2712.27	54.2463
2715.02	48.6392
2717.772	36.5322
2720.52	32.6755
2723.27	28.444
2726.02	20.3377
2728.77	23.6066
2731.52	16.3756
2734.26	17.2699
2737.01	15.2894
2739.75	14.434
2742.5	11.5788
2745.24	10.2238
2747.98	8.49403
2750.72	9.3894
2753.46	9.15995
2756.2	7.68068
2758.939	7.32659
2761.68	6.97267
2764.41	6.49391
2767.15	5.01533
2769.88	5.03691
2772.613	4.55866
2775.345	5.08056
2778.08	4.10263
2780.81	5.624855
2783.54	4.89723
2786.26	2.16977
2788.991	3.56745
2791.72	4.71528
2794.44	1.86326
2797.17	3.76137
2799.89	3.28463
2802.61	1.808031
2805.334	3.08155
2808.05	4.855216
2810.77	3.12901
2813.49	2.027935
2816.21	1.92698
2818.93	4.07615
2821.65	1.97544
2824.36	3.49983
2827.07	4.52435
2829.79	4.29898
2832.5	3.44872
2835.21	3.09857
2837.92	3.7485
2840.63	0.398544
2843.34	3.29869
2846.05	2.44892
2848.75	3.34923
2851.46	2.37465
2854.16	1.775148
2856.87	2.55071
2859.57	3.57637
2862.272	3.8521
2864.97	3.8779
2867.67	3.27877
2870.37	3.0547
2873.07	3.5807
2875.77	3.60676
2878.46	1.75787
2881.16	2.78404
2883.85	4.31025
2886.55	2.21152
2889.24	1.48781
2891.93	3.38916
2894.62	2.54054
2897.311	4.19196
2900	3.3434
2902.688	3.49487
2905.37	4.02136
2908.061	4.04788
2910.75	2.4494
2913.43	3.72595
2916.11	3.3775
2918.8	3.52905
2921.48	2.80562
2924.16	3.20717
2926.84	5.23373
2929.52	2.76027
2932.19	3.1618
2934.87	1.81331
2937.55	2.33983
2940.22	2.6163
2942.89	4.01775
2945.57	3.66918
2948.24	3.94557
2950.91	3.47192
2953.58	4.74823
2956.25	3.774519
2958.92	4.05074
2961.59	3.70191
2964.25	3.60303
2966.92	2.87909
2969.59	1.65511
2972.25	2.68104
2974.91	1.95691
2977.57	3.98271
2980.24	3.75843
2982.9	3.40907
2985.55	2.93463
2988.21	3.83511
2990.87	2.48549
2993.53	2.63579
2996.18	3.910984
2998.84	2.31108
3001.49	1.711074
3004.14	4.11096
3006.8	2.76074
3009.45	2.7854
3012.1	2.05994
3014.75	1.70937
3017.396	2.60867
3020.04	1.75784
3022.69	2.15688
3025.34	2.80579
3027.98	2.07955
3030.63	2.22818
3033.27	2.25166
3035.91	4.024982
3038.55	3.04816
3041.19	2.94619
3043.83	2.96906
3046.47	3.116765
3049.11	3.63929
3051.74	4.036665
3054.38	2.43387
3057.01	4.205894
3059.65	2.85273
3062.281	1.8744
3064.91	3.14588
3067.55	2.54218
3070.17	3.81327
3072.8	2.58418
3075.43	3.6049
3078.06	0.000399844
3080.69	3.52071
3083.31	3.540808
3085.94	3.6857
3088.563	3.70539
3091.19	3.47485
3093.81	1.7441
3096.43	3.26313
3099.05	3.03194
3101.67	3.17551
3104.29	4.06886
3106.91	4.08699
3109.52	4.22987
3112.14	1.99751
3114.75	2.88993
3117.37	3.40709
3119.98	3.54902
3122.59	4.44069
3125.21	2.70712
3127.82	2.84829
3130.427	1.98921
3133.04	3.12987
3135.64	3.14528
3138.251	2.66042
3140.86	4.800302
3143.46	4.06492
3146.07	5.57927
3148.67	3.71835
3151.27	3.35715
3153.874	4.87068
3156.48	3.88395
3159.08	3.39692
3161.67	3.784626
3164.27	4.92205
3166.87	4.55919
3169.47	3.19605
3172.06	3.20762
3174.66	3.0939
3177.251	3.35489
3179.85	3.3656
3182.437	6.00101
3185.03	3.01113
3187.62	4.02096
3190.21	2.90549
3192.8	3.41473
3195.38	2.29867
3197.97	3.30731
3200.56	3.19065
3203.14	3.573693
3205.73	3.83143
3208.31	4.58887
3210.89	2.84601
3213.47	2.72785
3216.054	2.73438
3218.63	4.11561
3221.21	4.37154
3223.791	6.12716
3226.37	5.13248
3228.95	6.26249
3231.52	5.0172
3234.1	4.1466
3236.67	5.4007
3239.241	11.4045
3241.81	10.533
3244.38	14.2862
3246.96	14.4141
3249.52	14.6666
3252.09	14.6689
3254.66	9.920886
3257.23	12.2976
3259.79	9.54894
3262.36	6.67501
3264.92	4.80079
3267.49	5.17627
3270.05	5.55146
3272.61	5.42635
3275.17	3.17594
3277.73	3.675247
3280.29	5.17426
3282.85	3.29799
3285.41	3.42142
3287.96	4.419579
3290.52	2.66745
3293.07	3.79004
3295.63	3.66235
3298.18	2.659379
3300.73	4.90614
3303.28	2.52762
3305.83	2.52384
3308.38	3.26979
3310.93	4.26548
3313.479	2.6359
3316.03	1.13106
3318.57	2.87597
3321.12	2.49563
3323.66	3.74004
3326.21	3.8592
3328.75	4.60312
3331.29	3.5968
3333.83	2.59025
3336.37	2.83347
3338.91	2.20146
3341.448	2.81922
3343.99	2.68677
3346.52	2.6791
3349.06	2.54623
3351.593	3.41315
3354.13	2.27986
3356.66	1.52138
3359.19	2.63771
3361.72	2.25386
3364.25	2.99482
3366.79	1.3606
3369.31	0.72622
3371.84	1.84167
3374.37	3.45697
3376.9	1.44711
3379.42	2.1871
3381.95	3.30195
3384.47	2.29166
3386.99	1.78125
3389.52	1.52072
3392.04	1.88507
3394.56	1.87431
3397.08	1.98845
3399.6	2.72749
3402.12	2.59145
3404.63	2.08033
3407.15	2.31913
3409.66	4.18287
3412.179	2.42155
3414.69	1.28518
3417.21	2.77377
3419.72	3.13733
3422.23	2.37586
3424.74	1.98937
3427.25	3.10288
3429.76	2.59139
3432.27	2.82991
3434.77	3.44345
3437.28	1.80701
3439.79	2.17061
3442.29	3.659261
3444.79	2.77297
3447.3	1.51175
3449.8	2.37559
3452.3	2.114531
3454.8	1.97857
3457.3	2.59271
3459.8	1.58198
3462.3	1.57137
3464.79	2.4359
3467.29	2.55059
3469.79	2.29043
3472.28	2.280462
3474.77	0.645671
3477.27	1.13608
3479.76	1.1267
3482.25	1.99254
3484.741	3.23362
3487.23	1.84995
3489.72	0.71654
3492.21	1.0834
3494.69	1.700551
3497.18	0.692998
3499.666	0.185763
3502.15	2.05385
3504.63	1.29729
3507.12	1.41607
3509.6	0.7852295
3512.08	2.27977
3514.56	1.64971
3517.04	1.52007
3519.521	1.26585
3522	0.762078
3524.48	1.38376
3526.95	2.63093
3529.43	0.75358
3531.9	2.001739
3534.38	1.50042
3536.85	-0.00035502
3539.32	2.24942
3541.79	1.37478
3544.26	0.875717
3546.73	1.12727
3549.2	0.129439
3551.67	1.38226
3554.14	0.385731
3556.61	0.639884
3559.07	1.64473
3561.54	1.6503
3564	2.4066
3566.46	1.03865
3568.93	1.42147
3571.39	1.30509
3573.85	1.68951
3576.31	1.57476
3578.77	2.08587
3581.23	2.72284
3583.68	2.11071
3586.14	0.749482
3588.6	1.63919
3591.052	1.40485
3593.51	1.296489
3595.96	2.06412
3598.41	2.58277
3600.865	1.72747
3603.32	0.37322
3605.77	1.14506
3608.22	2.418
3610.665	1.567082
3613.11	1.8423
3615.56	1.11871
3618.01	1.14631
3620.45	2.67515
3622.896	0.955227
3625.34	1.61158
3627.78	1.76922
3630.22	1.30319
3632.67	2.71352
3635.11	0.000211342
3637.55	1.663283
3639.99	1.8278
3642.42	1.61877
3644.86	1.03619
3647.3	1.955147
3649.73	2.12563
3652.17	2.42264
3654.6	1.22126
3657.04	3.021492
3659.47	1.07334
3661.9	2.00188