File: data/SEM_Raman_Data/KZPd_180112-1/Sample_20180112-1_1.txt
672.793	9.29175
676.3017	9.62784
679.809	8.837821
683.316	8.67168
686.818	7.00431
690.322	5.08592
693.824	7.9164
697.325	4.62074
700.825	4.82394
704.321	1.15086
707.8175	5.60175
711.313	3.926475
714.807	3.51258e-05
718.3	4.44743
721.789	3.89353
725.279	2.71357
728.768	4.15743
732.255	4.85011
735.7392	0.416485
739.224	0.731786
742.707	1.17089
746.187	3.6087
749.668	5.29541
753.147	6.105927
756.623	3.29014
760.1	1.84825
763.575	3.65516
767.047	2.33576
770.519	5.14026
773.9906	2.69356
777.4585	6.49554
780.927	9.04642
784.394	5.72109
787.858	6.76946
791.323	5.94171
794.784	7.61267
798.246	9.28251
801.705	9.82605
805.164	8.86848
808.6217	7.40971
812.076	9.19964
815.532	6.73846
818.984	9.27599
822.436	10.9374
825.885	10.3476
829.335	10.6316
832.782	7.78933
836.229	7.82098
839.673	9.97635
843.118	10.5056
846.559	4.15863
849.999	8.43545
853.44	5.08618
856.878	8.61065
860.316	8.759038
863.75	6.65617
867.186	6.92722
870.618	6.322022
874.049	9.84067
877.48	9.73324
880.909	8.62458
884.335	7.76477
887.763	6.4039
891.187	5.66682
894.612	9.05367
898.034	8.31432
901.454	9.44884
904.873	9.70724
908.293	10.3396
911.709	16.4708
915.124	10.9758
918.54	11.8548
921.953	11.2327
925.364	22.3595
928.774	32.9851
932.184	45.2348
935.592	57.1083
938.998	66.7308
942.402	71.7271
945.8078	66.0975
949.21	66.5918
952.611	65.4599
956.01	69.0771
959.409	73.8182
962.805	68.6833
966.203	65.2974
969.597	69.5354
972.99	68.2724
976.3822	69.2584
979.773	65.8684
983.162	63.4774
986.55	53.7104
989.936	39.9424
993.324	33.5484
996.708	26.27849
1000.09	24.0076
1003.47	22.98567
1006.852	16.3378
1010.23	19.689
1013.61	15.0393
1016.98	10.38859
1020.36	11.487
1023.73	11.08443
1027.11	10.056
1030.48	6.65159
1033.85	5.49631
1037.22	3.96513
1040.58	4.43305
1043.95	4.15009
1047.31	6.61624
1050.68	2.95653
1054.04	3.54594
1057.4	2.88449
1060.76	3.97214
1064.12	6.184
1067.47	4.39501
1070.83	2.855186
1074.18	1.18954
1077.54	1.14806
1080.89	3.48078
1084.24	1.43769
1087.59	1.39374
1090.937	1.34906
1094.28	2.92858
1097.63	3.13233
1100.97	3.2103
1104.32	2.9125
1107.66	2.3639
1111	1.43959
1114.34	4.13953
1117.68	2.08873
1121.01	3.03716
1124.35	0.609905
1127.68	2.05693
1131.014	4.37823
1134.344	2.82379
1137.67	5.1437
1141.004	4.21291
1144.33	5.03139
1147.66	3.34923
1150.98	3.416398
1154.31	5.60786
1157.63	2.42371
1160.95	3.86389
1164.27	2.1784
1167.59	2.8673
1170.91	1.680565
1174.22	3.61817
1177.54	5.80519
1180.85	6.74156
1184.16	5.30236
1187.47	3.98755
1190.78	2.54712
1194.09	1.231135
1197.4	4.53953
1200.71	0.0973898
1204.01	4.15464
1207.31	4.71137
1210.615	5.3925
1213.92	3.57312
1217.22	1.12816
1220.52	1.9327
1223.81	2.61167
1227.11	3.91515
1230.4	6.09308
1233.7	3.27053
1236.99	2.82244
1240.28	-0.00114596
1243.57	2.9248
1246.86	3.10023
1250.15	4.1502
1253.43	3.57467
1256.71	1.748673
1259.999	2.29724
1263.28	5.09531
1266.56	3.01796
1269.84	5.44014
1273.12	4.986876
1276.4	3.9082
1279.67	6.45407
1282.95	6.62452
1286.22	2.66955
1289.49	4.71419
1292.76	1.6334
1296.03	3.9272
1299.304	6.72064
1302.57	2.88866
1305.84	4.6813
1309.1	3.223551
1312.37	1.26546
1315.63	6.55697
1318.89	3.84812
1322.15	3.88891
1325.41	3.30434
1328.67	5.09445
1331.92	5.6342
1335.18	6.67361
1338.43	6.21268
1341.68	12.00143
1344.93	7.91486
1348.18	7.95296
1351.43	7.24078
1354.68	5.90326
1357.93	4.94045
1361.17	4.97733
1364.42	5.51392
1367.66	3.42522
1370.9	5.83624
1374.14	6.37198
1377.38	2.90744
1380.616	6.192637
1383.85	4.35256
1387.09	2.88723
1390.322	3.79664
1393.55	4.3308
1396.79	4.8647
1400.02	4.39837
1403.25	2.93179
1406.47	2.71498
1409.7	2.99794
1412.93	3.40567
1416.15	5.18818
1419.38	3.34547
1422.6	0.00254742
1425.82	4.03441
1429.04	4.94107
1432.25	2.09751
1435.47	2.12876
1438.69	5.784822
1441.9	2.31569
1445.12	5.72137
1448.33	3.37687
1451.54	3.90717
1454.75	3.56231
1457.96	4.84228
1461.17	3.87207
1464.37	6.7767
1467.58	4.55616
1470.78	2.460465
1473.98	2.48962
1477.19	5.51862
1480.39	3.29745
1483.58	4.326159
1486.78	4.85472
1489.98	5.50814
1493.17	4.16142
1496.37	5.06457
1499.563	3.46759
1502.75	4.62047
1505.94	2.52324
1509.14	3.17589
1512.32	6.45341
1515.51	3.98082
1518.7	4.38312
1521.88	5.7853
1525.06	4.68738
1528.25	6.21435
1531.43	2.99122
1534.61	3.518
1537.79	6.54467
1540.96	6.07125
1544.14	8.72273
1547.32	6.99914
1550.489	5.90044
1553.66	6.80167
1556.83	6.327806
1560	9.35388
1563.17	11.3799
1566.34	19.1558
1569.51	17.9316
1572.675	22.8324
1575.84	37.3581
1579	45.13369
1582.16	56.4092
1585.32	58.3097
1588.49	45.9602
1591.64	29.8606
1594.8	20.0109
1597.96	14.28614
1601.11	8.93635
1604.27	6.83651
1607.42	5.36161
1610.57	5.88667
1613.72	6.03669
1616.871	5.68665
1620.02	4.83657
1623.17	7.48646
1626.31	5.38629
1629.46	2.78609
1632.6	3.810858
1635.74	3.21058
1638.88	5.36027
1642.02	3.13492
1645.16	2.28455
1648.3	5.05914
1651.44	3.8337
1654.57	1.233234
1657.7	2.00774
1660.84	3.15723
1663.97	4.05668
1667.1	2.70611
1670.23	0.605516
1673.36	2.7549
1676.48	2.90426
1679.61	2.80362
1682.74	1.82794
1685.86	2.60225
1688.98	0.876535
1692.1	2.02581
1695.22	2.42506
1698.34	2.0743
1701.46	1.97353
1704.58	-0.00225626
1707.69	1.14694
1710.81	1.17113
1713.92	0.0703102
1717.03	0.469476
1720.14	1.86863
1723.25	1.14278
1726.36	2.66692
1729.47	1.69104
1732.58	1.09016
1735.68	1.98928
1738.78	1.513381
1741.89	0.7874788
1744.99	1.56157
1748.09	1.83565
1751.19	2.23473
1754.29	2.38381
1757.39	1.53287
1760.48	1.30692
1763.58	1.455978
1766.67	2.48003
1769.76	3.25408
1772.85	0.153119
1775.94	2.17716
1779.03	1.70118
1782.12	3.35021
1785.21	0.874231
1788.29	1.64825
1791.379	3.67227
1794.46	2.07127
1797.54	2.970274
1800.63	3.11928
1803.7	2.51826
1806.78	1.79226
1809.86	4.191246
1812.94	3.21523
1816.01	4.3642
1819.09	1.88817
1822.16	1.66214
1825.23	3.68609
1828.31	2.96004
1831.38	3.48399
1834.44	3.50792
1837.51	3.53186
1840.58	2.43078
1843.64	2.9547
1846.71	3.72861
1849.77	2.3775
1852.83	2.151402
1855.89	1.67528
1858.95	1.32415
1862.01	2.22301
1865.07	2.24687
1868.125	4.6457
1871.18	2.16954
1874.23	3.44335
1877.29	4.09216
1880.34	2.49094
1883.39	1.26473
1886.44	2.53849
1889.49	3.93724
1892.54	2.46097
1895.58	1.7347
1898.63	3.00839
1901.67	2.28207
1904.72	5.05574
1907.76	2.20438
1910.8	3.60302
1913.84	2.12662
1916.88	3.15021
1919.91	3.17378
1922.95	2.07232
1925.98	2.59584
1929.02	2.74434
1932.052	2.392812
1935.08	3.29126
1938.11	0.814676
1941.14	4.21308
1944.17	2.23645
1947.2	4.63479
1950.23	4.03309
1953.25	2.55639
1956.28	3.329634
1959.3	3.22785
1962.32	2.25104
1965.34	3.52419
1968.36	3.29732
1971.38	3.3204
1974.4	2.21845
1977.41	3.74147
1980.43	1.88944
1983.44	3.53738
1986.46	3.18527
1989.469	5.20815
1992.48	2.85596
1995.49	2.753737
1998.498	1.77647
2001.51	4.17416
2004.512	2.5718
2007.52	1.8444
2010.52	2.99195
2013.52	2.38946
2016.527	4.41192
2019.53	3.30933
2022.528	4.83168
2025.527	3.35399
2028.52	2.75125
2031.52	1.27345
2034.52	3.04559
2037.51	4.942688
2040.51	4.339726
2043.5	1.111706
2046.49	3.25863
2049.478	2.40548
2052.47	2.802285
2055.46	1.82403
2058.44	4.84571
2061.43	1.36733
2064.41	4.76389
2067.4	2.66038
2070.38	3.30679
2073.36	3.95315
2076.34	1.72444
2079.32	2.99567
2082.3	3.14182
2085.28	4.4129
2088.25	3.30891
2091.23	1.95485
2094.2	2.47571
2097.17	4.9965
2100.146	2.89222
2103.12	2.91286
2106.09	3.80842
2109.05	3.3289
2112.02	2.97431
2114.99	2.24463
2117.95	2.01488
2120.92	3.03505
2123.88	2.18012
2126.844	2.57512
2129.804	2.47003
2132.76	4.48986
2135.72	0.634603
2138.68	3.279249
2141.64	2.79882
2144.59	2.06829
2147.55	1.337682
2150.5	3.73197
2153.46	0.00118104
2156.41	1.645286
2159.36	2.91431
2162.31	2.93323
2165.25	2.70206
2168.2	3.22079
2171.15	2.73943
2174.09	2.007967
2177.04	1.02641
2179.98	0.66975
2182.92	2.563
2185.86	2.33113
2188.8	2.59917
2191.74	2.99211
2194.68	2.759938
2197.61	2.15266
2200.551	4.29529
2203.48	3.18781
2206.418	3.08022
2209.35	1.34753
2212.28	3.48972
2215.21	2.50681
2218.14	4.0238
2221.07	4.41566
2224	3.182421
2226.92	3.32407
2229.85	3.84061
2232.77	3.73203
2235.69	4.12334
2238.62	1.38953
2241.54	3.65561
2244.46	2.54659
2247.38	2.93744
2250.29	4.70317
2253.21	4.34379
2256.13	3.23428
2259.04	2.12467
2261.95	4.01494
2264.87	4.28008
2267.78	3.1701
2270.69	3.68501
2273.6	1.57479
2276.51	3.08945
2279.41	4.47899
2282.32	4.3684
2285.22	1.6327
2288.13	3.77187
2291.031	2.41092
2293.93	4.674839
2296.834	2.18864
2299.73	1.20231
2302.63	2.09086
2305.53	3.47928
2308.43	3.117579
2311.32	3.13075
2314.22	3.39379
2317.11	1.65671
2320.01	2.5445
2322.9	2.18215
2325.79	3.69468
2328.676	0.957085
2331.56	3.09436
2334.45	3.73151
2337.34	2.36852
2340.23	4.00541
2343.11	2.76716
2345.99	3.90379
2348.87	2.04029
2351.76	3.05165
2354.64	2.68789
2357.52	5.44899
2360.39	1.83497
2363.27	3.22081
2366.15	4.10652
2369.02	1.4921
2371.9	4.25255
2374.77	3.13787
2377.64	4.52305
2380.51	2.78311
2383.38	4.29303
2386.25	4.30282
2389.12	4.68749
2391.99	3.44701
2394.853	5.45641
2397.72	4.46568
2400.58	3.97481
2403.45	5.23381
2406.31	2.99268
2409.17	4.62643
2412.03	3.13503
2414.89	1.89351
2417.74	4.40186
2420.6	2.78508
2423.46	5.41816
2426.31	4.30112
2429.16	6.68394
2432.02	3.94164
2434.87	3.5742
2437.72	5.33164
2440.57	7.08895
2443.42	7.22113
2446.27	7.97817
2449.11	9.36009
2451.96	10.1169
2454.8	10.9986
2457.65	9.00509
2460.49	10.3865
2463.33	9.39278
2466.17	9.27394
2469.01	10.155
2471.85	9.41087
2474.69	6.04165
2477.53	7.92231
2480.36	7.30284
2483.19	6.18325
2486.03	5.56353
2488.86	6.06869
2491.69	6.94873
2494.52	4.57864
2497.35	4.70844
2500.18	4.83811
2503.01	6.71767
2505.84	5.7221
2508.66	4.85142
2511.49	4.48061
2514.31	5.10969
2517.13	6.23865
2519.95	5.1175
2522.78	5.12123
2525.59	4.24984
2528.41	3.75334
2531.23	5.256722
2534.05	4.259994
2536.86	5.26315
2539.68	6.5162
2542.491	5.01914
2545.3	5.89696
2548.12	6.39968
2550.93	5.527288
2553.74	3.90479
2556.54	3.657182
2559.35	4.40947
2562.16	3.41165
2564.96	6.28873
2567.77	5.2907
2570.57	4.29257
2573.375	4.54434
2576.177	4.29601
2578.978	4.54758
2581.78	6.049047
2584.58	4.05042
2587.375	4.55169
2590.17	3.80287
2592.97	3.67895
2595.762	6.05494
2598.56	3.80583
2601.35	6.30664
2604.14	4.43235
2606.93	2.93297
2609.72	5.0585
2612.51	5.93394
2615.3	6.8093
2618.09	8.05957
2620.87	6.30976
2623.658	8.93486
2626.44	7.80988
2629.22	11.05982
2632.01	10.8097
2634.79	13.3095
2637.57	13.8092
2640.35	17.8088
2643.13	17.9333
2645.9	17.4328
2648.68	26.1822
2651.45	30.3065
2654.23	36.6808
2657	42.055
2659.77	51.9291
2662.55	69.1782
2665.32	84.0521
2668.09	104.301
2670.85	128.925
2673.62	144.674
2676.39	170.172
2679.15	187.171
2681.92	199.545
2684.68	190.293
2687.45	196.292
2690.21	169.04
2692.968	139.7887
2695.73	118.287
2698.49	87.6603
2701.24	70.5336
2704.001	56.0318
2706.76	45.155
2709.51	38.1531
2712.27	32.1511
2715.02	24.5242
2717.772	20.5222
2720.52	20.8951
2723.27	16.893
2726.02	13.8909
2728.77	14.1387
2731.52	11.2616
2734.26	10.0093
2737.01	9.13209
2739.75	11.0048
2742.5	9.0025
2745.24	7.75017
2747.98	8.62281
2750.72	7.37043
2753.46	9.74303
2756.2	5.990612
2758.939	4.61317
2761.68	5.48572
2764.41	6.60825
2767.15	4.60576
2769.88	3.47827
2772.613	3.97576
2775.345	4.59825
2778.08	5.22072
2780.81	3.84319
2783.54	4.46566
2786.26	3.46312
2788.991	4.96059
2791.72	3.08305
2794.44	3.33051
2797.17	4.82798
2799.89	5.57545
2802.61	3.82293
2805.334	4.820415
2808.05	2.19291
2810.77	2.31542
2813.49	4.31294
2816.21	4.56047
2818.93	3.68302
2821.65	4.80558
2824.36	4.30317
2827.07	1.92577
2829.79	3.7984
2832.5	2.92105
2835.21	3.16872
2837.92	2.91643
2840.63	4.03916
2843.34	3.66192
2846.05	2.53471
2848.75	2.15753
2851.46	2.40539
2854.16	2.90328
2856.87	2.90121
2859.57	1.77418
2862.272	3.52219
2864.97	3.89524
2867.67	4.01834
2870.37	2.76648
2873.07	1.38967
2875.77	4.0129
2878.46	3.76119
2881.16	2.63452
2883.85	4.38291
2886.55	3.63135
2889.24	1.00485
2891.93	2.3784
2894.62	0.502018
2897.311	2.87569
2900	2.87443
2902.688	1.62322
2905.37	3.12209
2908.061	1.49601
2910.75	2.49501
2913.43	1.99407
2916.11	1.11821
2918.8	2.99241
2921.48	2.11669
2924.16	1.74104
2926.84	2.61547
2929.52	0.114978
2932.19	2.61456
2934.87	1.86423
2937.55	3.48897
2940.22	2.3638
2942.89	2.98871
2945.57	0.61371
2948.24	2.48879
2950.91	1.86397
2953.58	2.23923
2956.25	2.23958
2958.92	0.490023
2961.59	0.24056
2964.25	1.24119
2966.92	0.741917
2969.59	1.36774
2972.25	1.86866
2974.91	0.369682
2977.57	1.6208
2980.24	1.74703
2982.9	2.37335
2985.55	2.37478
2988.21	0.751314
2990.87	2.37795
2993.53	1.8797
2996.18	1.00656
2998.84	1.75852
3001.49	2.3856
3004.14	2.88778
3006.8	2.765084
3009.45	2.1425
3012.1	1.27002
3014.75	3.89767
3017.396	2.40043
3020.04	2.9033
3022.69	1.1563
3025.34	1.65942
3027.98	1.41265
3030.63	0.916006
3033.27	2.91948
3035.91	2.67308
3038.55	2.551806
3041.19	0.930654
3043.83	1.05963
3046.47	1.43873
3049.11	3.31795
3051.74	1.3223
3054.38	0.951785
3057.01	2.33139
3059.65	1.836131
3062.281	2.716
3064.91	1.596
3067.55	2.10113
3070.17	0.981389
3072.8	2.23678
3075.43	-0.00768901
3078.06	2.12297
3080.69	1.25376
3083.31	2.63469
3085.94	0.2657499
3088.563	1.02195
3091.19	0.778277
3093.81	0.909745
3096.43	1.91635
3099.05	1.79809
3101.67	2.30496
3104.29	1.06197
3106.91	3.06912
3109.52	2.82641
3112.14	1.70883
3114.75	1.34139
3117.37	0.349087
3119.98	0.981924
3122.59	0.864895
3125.21	0.373007
3127.82	1.131253
3130.427	2.26464
3133.04	2.64816
3135.64	1.406819
3138.251	1.54062
3140.86	1.54955
3143.46	1.55862
3146.07	2.44283
3148.67	0.32717
3151.27	4.33665
3153.874	1.72126
3156.48	1.35601
3159.08	1.36589
3161.67	2.250912
3164.27	0.0110627
3166.87	2.02135
3169.47	1.15677
3172.06	1.91732
3174.66	1.053
3177.251	1.56382
3179.85	2.19976
3182.437	2.33584
3185.03	0.722038
3187.62	0.358369
3190.21	2.86983
3192.8	1.38141
3195.38	2.01812
3197.97	2.02995
3200.56	1.91691
3203.14	1.80399
3205.73	1.691195
3208.31	0.5785175
3210.89	1.59096
3213.47	1.47852
3216.054	2.3662
3218.63	1.62899
3221.21	3.6419
3223.791	0.6549207
3226.37	2.54305
3228.95	2.4313
3231.52	4.31965
3234.1	3.83311
3236.67	5.59668
3239.241	9.23534
3241.81	12.3741
3244.38	12.263
3246.96	15.40196
3249.52	14.291
3252.09	10.8052
3254.66	7.94445
3257.23	5.5838
3259.79	4.59825
3262.36	4.86278
3264.92	3.502389
3267.49	2.39209
3270.05	4.15687
3272.61	1.42173
3275.17	2.93667
3277.73	0.201684
3280.29	2.966763
3282.85	1.356923
3285.41	1.99715
3287.96	1.51243
3290.52	2.65279
3293.07	2.7932
3295.63	0.0586728
3298.18	1.5742
3300.73	1.08978
3303.28	1.230409
3305.83	-0.00392115
3308.38	1.2618
3310.93	2.40256
3313.479	0.91836
3316.03	1.18419
3318.57	1.57506
3321.12	2.71595
3323.66	2.85686
3326.21	1.87281
3328.75	0.888769
3331.29	2.15475
3333.83	0.545737
3336.37	1.06173
3338.91	2.57774
3341.448	2.46874
3343.99	0.484743
3346.52	2.000747
3349.06	1.26673
3351.593	1.4077
3354.13	1.17367
3356.66	3.0646
3359.19	1.83051
3361.72	1.84639
3364.25	1.23724
3366.79	1.00306
3369.31	2.39383
3371.84	3.15956
3374.37	1.92523
3376.9	2.06585
3379.42	2.45641
3381.95	1.34691
3384.47	2.48734
3386.99	2.2527
3389.52	1.26798
3392.04	2.78318
3394.56	2.04829
3397.08	1.0633
3399.6	3.20322
3402.12	2.84304
3404.63	1.232754
3407.15	2.99735
3409.66	3.88684
3412.179	2.77619
3414.69	2.790427
3417.21	2.67952
3419.72	2.19348
3422.23	1.8323
3424.74	1.97096
3427.25	2.60947
3429.76	2.1228
3432.27	1.26098
3434.77	2.77399
3437.28	3.91181
3439.79	2.92445
3442.29	1.061897
3444.79	1.32414
3447.3	1.96119
3449.8	1.97302
3452.3	1.35964
3454.8	2.49602
3457.3	2.38219
3459.8	1.76812
3462.3	2.52879
3464.79	2.28923
3467.29	1.7994
3469.79	2.30932
3472.28	2.69395
3474.77	1.70332
3477.27	1.08739
3479.76	2.72118
3482.25	1.354663
3484.741	1.862838
3487.23	3.2457
3489.72	2.62824
3492.21	2.38545
3494.69	2.76733
3497.18	2.14886
3499.666	2.15503
3502.15	1.78585
3504.63	1.291291
3507.12	0.796362
3509.6	0.551045
3512.08	0.805336
3514.56	2.30922
3517.04	2.4377
3519.521	1.56576
3522	0.443396
3524.48	2.32059
3526.95	2.44735
3529.43	1.69865
3531.9	1.324483
3534.38	2.07485
3536.85	1.44973
3539.32	1.07413
3541.79	2.073029
3544.26	3.07142
3546.73	1.19429
3549.2	2.31664
3551.67	1.68845
3554.14	2.55971
3556.61	1.68042
3559.07	2.175561
3561.54	3.29513
3564	1.28911
3566.46	2.40749
3568.93	1.40027
3571.39	1.517436
3573.85	1.88397
3576.31	2.62487
3578.77	1.99013
3581.23	1.10472
3583.68	1.46865
3586.14	2.581897
3588.6	1.81945
3591.052	3.30631
3593.51	1.54245
3595.96	2.77787
3598.41	1.13755
3600.865	2.24649
3603.32	0.479668
3605.77	1.21208
3608.22	0.568707
3610.665	3.049542
3613.11	1.77958
3615.56	0.133798
3618.01	1.73719
3620.45	0.839729
3622.896	1.94142
3625.34	1.91725
3627.78	1.64221
3630.22	1.49127
3632.67	1.96442
3635.11	1.68666
3637.55	0.407993
3639.99	1.25336
3642.42	1.347778
3644.86	0.691247
3647.3	0.283712
3649.73	0.0001861129
3652.17	0.465673
3654.6	0.930121
3657.04	0.518533
3659.47	1.35592
3661.9	0.0672175