File: data/SEM_Raman_Data/KZPd_180420-2/sample.txt
672.793	2051
676.3017	2019
679.809	1988
683.316	1998
686.818	1939
690.322	1846
693.824	1786
697.325	1824
700.825	1754
704.321	1678
707.8175	1692
711.313	1641
714.807	1686
718.3	1668
721.789	1607
725.279	1639
728.768	1566
732.255	1569
735.7392	1553
739.224	1497
742.707	1525
746.187	1498
749.668	1519
753.147	1533
756.623	1552
760.1	1549
763.575	1608
767.047	1562
770.519	1624
773.9906	1526
777.4585	1580
780.927	1565
784.394	1554
787.858	1578
791.323	1602
794.784	1548
798.246	1627
801.705	1531
805.164	1570
808.6217	1628
812.076	1653
815.532	1558
818.984	1638
822.436	1619
825.885	1579
829.335	1527
832.782	1508
836.229	1492
839.673	1544
843.118	1496
846.559	1514
849.999	1476
853.44	1539
856.878	1450
860.316	1483
863.75	1494
867.186	1473
870.618	1513
874.049	1490
877.48	1533
880.909	1458
884.335	1513
887.763	1486
891.187	1417
894.612	1470
898.034	1508
901.454	1509
904.873	1480
908.293	1527
911.709	1553
915.124	1568
918.54	1671
921.953	1761
925.364	1988
928.774	2468
932.184	2923
935.592	3483
938.998	3828
942.402	3838
945.8078	3795
949.21	3837
952.611	3906
956.01	3838
959.409	3856
962.805	3868
966.203	3817
969.597	3868
972.99	3863
976.3822	3853
979.773	3806
983.162	3538
986.55	3125
989.936	2557
993.324	2175
996.708	2022
1000.09	1796
1003.47	1703
1006.852	1639
1010.23	1530
1013.61	1516
1016.98	1364
1020.36	1298
1023.73	1268
1027.11	1100
1030.48	1116
1033.85	1075
1037.22	975
1040.58	1025
1043.95	972
1047.31	1004
1050.68	1014
1054.04	947
1057.4	971
1060.76	962
1064.12	964
1067.47	907
1070.83	890
1074.18	935
1077.54	900
1080.89	906
1084.24	911
1087.59	909
1090.937	906
1094.28	832
1097.63	907
1100.97	874
1104.32	854
1107.66	817
1111	835
1114.34	857
1117.68	880
1121.01	892
1124.35	860
1127.68	822
1131.014	833
1134.344	806
1137.67	836
1141.004	856
1144.33	842
1147.66	855
1150.98	789
1154.31	857
1157.63	858
1160.95	831
1164.27	809
1167.59	832
1170.91	798
1174.22	836
1177.54	814
1180.85	765
1184.16	846
1187.47	813
1190.78	769
1194.09	805
1197.4	818
1200.71	796
1204.01	818
1207.31	837
1210.615	784
1213.92	789
1217.22	776
1220.52	814
1223.81	802
1227.11	730
1230.4	747
1233.7	806
1236.99	814
1240.28	716
1243.57	759
1246.86	752
1250.15	746
1253.43	759
1256.71	743
1259.999	768
1263.28	745
1266.56	731
1269.84	739
1273.12	753
1276.4	746
1279.67	751
1282.95	733
1286.22	720
1289.49	752
1292.76	716
1296.03	726
1299.304	714
1302.57	726
1305.84	707
1309.1	704
1312.37	705
1315.63	718
1318.89	735
1322.15	777
1325.41	766
1328.67	757
1331.92	770
1335.18	787
1338.43	874
1341.68	958
1344.93	928
1348.18	874
1351.43	848
1354.68	807
1357.93	785
1361.17	776
1364.42	751
1367.66	778
1370.9	762
1374.14	737
1377.38	722
1380.616	751
1383.85	712
1387.09	737
1390.322	698
1393.55	691
1396.79	691
1400.02	738
1403.25	735
1406.47	697
1409.7	726
1412.93	685
1416.15	696
1419.38	646
1422.6	671
1425.82	723
1429.04	730
1432.25	704
1435.47	690
1438.69	731
1441.9	714
1445.12	683
1448.33	675
1451.54	680
1454.75	694
1457.96	685
1461.17	665
1464.37	644
1467.58	657
1470.78	639
1473.98	648
1477.19	623
1480.39	651
1483.58	636
1486.78	623
1489.98	656
1493.17	654
1496.37	642
1499.563	695
1502.75	681
1505.94	674
1509.14	691
1512.32	678
1515.51	675
1518.7	691
1521.88	664
1525.06	686
1528.25	663
1531.43	646
1534.61	695
1537.79	741
1540.96	716
1544.14	750
1547.32	781
1550.489	788
1553.66	862
1556.83	906
1560	1044
1563.17	1171
1566.34	1516
1569.51	1996
1572.675	2696
1575.84	3727
1579	4682
1582.16	4413
1585.32	3611
1588.49	2534
1591.64	1798
1594.8	1380
1597.96	1171
1601.11	964
1604.27	913
1607.42	833
1610.57	772
1613.72	730
1616.871	721
1620.02	690
1623.17	692
1626.31	702
1629.46	672
1632.6	605
1635.74	647
1638.88	668
1642.02	615
1645.16	617
1648.3	603
1651.44	583
1654.57	619
1657.7	584
1660.84	575
1663.97	568
1667.1	585
1670.23	558
1673.36	553
1676.48	555
1679.61	566
1682.74	522
1685.86	544
1688.98	474
1692.1	539
1695.22	528
1698.34	487
1701.46	526
1704.58	553
1707.69	537
1710.81	525
1713.92	494
1717.03	523
1720.14	542
1723.25	527
1726.36	565
1729.47	550
1732.58	526
1735.68	527
1738.78	541
1741.89	513
1744.99	518
1748.09	502
1751.19	480
1754.29	515
1757.39	527
1760.48	529
1763.58	508
1766.67	512
1769.76	507
1772.85	553
1775.94	502
1779.03	498
1782.12	538
1785.21	523
1788.29	506
1791.379	490
1794.46	495
1797.54	509
1800.63	537
1803.7	542
1806.78	531
1809.86	525
1812.94	512
1816.01	501
1819.09	486
1822.16	513
1825.23	488
1828.31	495
1831.38	498
1834.44	482
1837.51	474
1840.58	518
1843.64	505
1846.71	488
1849.77	515
1852.83	500
1855.89	506
1858.95	570
1862.01	595
1865.07	570
1868.125	593
1871.18	590
1874.23	542
1877.29	568
1880.34	545
1883.39	523
1886.44	518
1889.49	489
1892.54	547
1895.58	469
1898.63	479
1901.67	477
1904.72	481
1907.76	469
1910.8	468
1913.84	495
1916.88	485
1919.91	502
1922.95	489
1925.98	493
1929.02	470
1932.052	435
1935.08	488
1938.11	467
1941.14	457
1944.17	467
1947.2	471
1950.23	471
1953.25	476
1956.28	466
1959.3	470
1962.32	493
1965.34	485
1968.36	476
1971.38	496
1974.4	436
1977.41	455
1980.43	506
1983.44	463
1986.46	513
1989.469	477
1992.48	518
1995.49	540
1998.498	511
2001.51	557
2004.512	513
2007.52	514
2010.52	547
2013.52	550
2016.527	508
2019.53	517
2022.528	501
2025.527	470
2028.52	471
2031.52	474
2034.52	487
2037.51	469
2040.51	452
2043.5	462
2046.49	428
2049.478	440
2052.47	467
2055.46	407
2058.44	439
2061.43	437
2064.41	443
2067.4	426
2070.38	413
2073.36	395
2076.34	455
2079.32	387
2082.3	454
2085.28	438
2088.25	429
2091.23	404
2094.2	462
2097.17	425
2100.146	451
2103.12	401
2106.09	405
2109.05	408
2112.02	415
2114.99	422
2117.95	415
2120.92	408
2123.88	409
2126.844	397
2129.804	416
2132.76	398
2135.72	441
2138.68	414
2141.64	399
2144.59	405
2147.55	418
2150.5	408
2153.46	397
2156.41	391
2159.36	399
2162.31	400
2165.25	375
2168.2	377
2171.15	362
2174.09	366
2177.04	368
2179.98	377
2182.92	379
2185.86	375
2188.8	358
2191.74	405
2194.68	388
2197.61	393
2200.551	403
2203.48	404
2206.418	370
2209.35	390
2212.28	378
2215.21	392
2218.14	403
2221.07	414
2224	390
2226.92	397
2229.85	406
2232.77	401
2235.69	403
2238.62	427
2241.54	404
2244.46	415
2247.38	389
2250.29	401
2253.21	373
2256.13	389
2259.04	366
2261.95	420
2264.87	394
2267.78	404
2270.69	408
2273.6	395
2276.51	393
2279.41	384
2282.32	387
2285.22	394
2288.13	394
2291.031	388
2293.93	397
2296.834	405
2299.73	381
2302.63	385
2305.53	395
2308.43	388
2311.32	397
2314.22	381
2317.11	394
2320.01	369
2322.9	374
2325.79	404
2328.676	406
2331.56	413
2334.45	391
2337.34	381
2340.23	405
2343.11	395
2345.99	395
2348.87	407
2351.76	399
2354.64	377
2357.52	399
2360.39	382
2363.27	385
2366.15	405
2369.02	387
2371.9	408
2374.77	378
2377.64	409
2380.51	415
2383.38	374
2386.25	401
2389.12	434
2391.99	419
2394.853	413
2397.72	410
2400.58	408
2403.45	404
2406.31	401
2409.17	441
2412.03	428
2414.89	424
2417.74	425
2420.6	502
2423.46	447
2426.31	449
2429.16	477
2432.02	506
2434.87	553
2437.72	609
2440.57	735
2443.42	860
2446.27	1046
2449.11	1151
2451.96	1273
2454.8	1184
2457.65	1146
2460.49	1049
2463.33	979
2466.17	862
2469.01	812
2471.85	791
2474.69	720
2477.53	722
2480.36	713
2483.19	658
2486.03	603
2488.86	620
2491.69	594
2494.52	559
2497.35	578
2500.18	535
2503.01	565
2505.84	515
2508.66	529
2511.49	507
2514.31	502
2517.13	481
2519.95	480
2522.78	492
2525.59	485
2528.41	483
2531.23	448
2534.05	492
2536.86	490
2539.68	477
2542.491	480
2545.3	485
2548.12	492
2550.93	478
2553.74	523
2556.54	511
2559.35	499
2562.16	501
2564.96	451
2567.77	467
2570.57	477
2573.375	481
2576.177	480
2578.978	492
2581.78	490
2584.58	479
2587.375	542
2590.17	516
2592.97	526
2595.762	552
2598.56	537
2601.35	574
2604.14	553
2606.93	562
2609.72	571
2612.51	599
2615.3	618
2618.09	655
2620.87	679
2623.658	707
2626.44	722
2629.22	781
2632.01	789
2634.79	856
2637.57	926
2640.35	949
2643.13	1053
2645.9	1195
2648.68	1383
2651.45	1500
2654.23	1847
2657	2174
2659.77	2692
2662.55	3571
2665.32	4729
2668.09	6333
2670.85	8776
2673.62	12183
2676.39	15833
2679.15	20490
2681.92	23969
2684.68	26172
2687.45	25618
2690.21	23217
2692.968	19399
2695.73	15518
2698.49	11861
2701.24	9071
2704.001	6947
2706.76	5324
2709.51	4191
2712.27	3434
2715.02	2862
2717.772	2355
2720.52	2118
2723.27	1700
2726.02	1551
2728.77	1411
2731.52	1250
2734.26	1078
2737.01	1008
2739.75	974
2742.5	914
2745.24	813
2747.98	781
2750.72	731
2753.46	670
2756.2	699
2758.939	651
2761.68	622
2764.41	648
2767.15	589
2769.88	599
2772.613	572
2775.345	550
2778.08	572
2780.81	536
2783.54	511
2786.26	520
2788.991	513
2791.72	541
2794.44	483
2797.17	494
2799.89	487
2802.61	467
2805.334	488
2808.05	442
2810.77	451
2813.49	449
2816.21	454
2818.93	435
2821.65	451
2824.36	449
2827.07	440
2829.79	422
2832.5	423
2835.21	421
2837.92	403
2840.63	404
2843.34	418
2846.05	416
2848.75	406
2851.46	396
2854.16	420
2856.87	382
2859.57	413
2862.272	394
2864.97	387
2867.67	382
2870.37	381
2873.07	375
2875.77	371
2878.46	376
2881.16	379
2883.85	371
2886.55	384
2889.24	359
2891.93	367
2894.62	373
2897.311	361
2900	362
2902.688	350
2905.37	365
2908.061	325
2910.75	368
2913.43	354
2916.11	349
2918.8	341
2921.48	337
2924.16	365
2926.84	332
2929.52	329
2932.19	332
2934.87	341
2937.55	364
2940.22	338
2942.89	330
2945.57	288
2948.24	303
2950.91	334
2953.58	292
2956.25	345
2958.92	292
2961.59	333
2964.25	323
2966.92	298
2969.59	312
2972.25	307
2974.91	328
2977.57	284
2980.24	299
2982.9	304
2985.55	308
2988.21	297
2990.87	286
2993.53	304
2996.18	302
2998.84	280
3001.49	264
3004.14	290
3006.8	253
3009.45	305
3012.1	310
3014.75	270
3017.396	290
3020.04	285
3022.69	312
3025.34	293
3027.98	296
3030.63	293
3033.27	273
3035.91	260
3038.55	280
3041.19	288
3043.83	306
3046.47	291
3049.11	290
3051.74	291
3054.38	274
3057.01	281
3059.65	270
3062.281	275
3064.91	270
3067.55	274
3070.17	264
3072.8	268
3075.43	260
3078.06	269
3080.69	285
3083.31	283
3085.94	277
3088.563	272
3091.19	276
3093.81	285
3096.43	293
3099.05	287
3101.67	293
3104.29	251
3106.91	256
3109.52	265
3112.14	272
3114.75	274
3117.37	267
3119.98	281
3122.59	267
3125.21	276
3127.82	266
3130.427	269
3133.04	284
3135.64	277
3138.251	266
3140.86	244
3143.46	274
3146.07	241
3148.67	255
3151.27	255
3153.874	243
3156.48	247
3159.08	271
3161.67	257
3164.27	252
3166.87	262
3169.47	247
3172.06	297
3174.66	289
3177.251	280
3179.85	300
3182.437	260
3185.03	264
3187.62	252
3190.21	248
3192.8	271
3195.38	238
3197.97	242
3200.56	241
3203.14	256
3205.73	257
3208.31	258
3210.89	261
3213.47	248
3216.054	274
3218.63	286
3221.21	304
3223.791	331
3226.37	359
3228.95	360
3231.52	508
3234.1	625
3236.67	786
3239.241	1117
3241.81	1384
3244.38	1692
3246.96	1512
3249.52	1268
3252.09	1026
3254.66	697
3257.23	534
3259.79	416
3262.36	333
3264.92	319
3267.49	281
3270.05	270
3272.61	248
3275.17	268
3277.73	255
3280.29	252
3282.85	257
3285.41	251
3287.96	241
3290.52	238
3293.07	255
3295.63	254
3298.18	243
3300.73	230
3303.28	225
3305.83	252
3308.38	249
3310.93	219
3313.479	223
3316.03	229
3318.57	221
3321.12	209
3323.66	233
3326.21	232
3328.75	235
3331.29	235
3333.83	238
3336.37	246
3338.91	226
3341.448	224
3343.99	227
3346.52	221
3349.06	210
3351.593	221
3354.13	223
3356.66	207
3359.19	216
3361.72	228
3364.25	234
3366.79	231
3369.31	231
3371.84	215
3374.37	225
3376.9	236
3379.42	212
3381.95	207
3384.47	218
3386.99	220
3389.52	206
3392.04	217
3394.56	225
3397.08	255
3399.6	229
3402.12	236
3404.63	216
3407.15	214
3409.66	211
3412.179	218
3414.69	191
3417.21	225
3419.72	212
3422.23	251
3424.74	210
3427.25	246
3429.76	226
3432.27	231
3434.77	219
3437.28	211
3439.79	234
3442.29	218
3444.79	213
3447.3	234
3449.8	226
3452.3	217
3454.8	240
3457.3	233
3459.8	227
3462.3	206
3464.79	206
3467.29	198
3469.79	212
3472.28	215
3474.77	215
3477.27	197
3479.76	213
3482.25	203
3484.741	219
3487.23	192
3489.72	217
3492.21	199
3494.69	216
3497.18	217
3499.666	209
3502.15	200
3504.63	229
3507.12	218
3509.6	214
3512.08	208
3514.56	229
3517.04	204
3519.521	191
3522	214
3524.48	208
3526.95	220
3529.43	190
3531.9	192
3534.38	198
3536.85	209
3539.32	201
3541.79	193
3544.26	198
3546.73	212
3549.2	198
3551.67	216
3554.14	195
3556.61	193
3559.07	215
3561.54	195
3564	202
3566.46	204
3568.93	218
3571.39	206
3573.85	192
3576.31	208
3578.77	191
3581.23	209
3583.68	199
3586.14	212
3588.6	205
3591.052	199
3593.51	205
3595.96	204
3598.41	208
3600.865	210
3603.32	206
3605.77	187
3608.22	198
3610.665	185
3613.11	192
3615.56	201
3618.01	194
3620.45	181
3622.896	200
3625.34	185
3627.78	200
3630.22	203
3632.67	196
3635.11	191
3637.55	181
3639.99	175
3642.42	185
3644.86	181
3647.3	188
3649.73	183
3652.17	174
3654.6	191
3657.04	185
3659.47	182
3661.9	196