File: data/SEM_Raman_Data/KZPd_180415-2/sample.txt
672.793	3255
676.3017	3286
679.809	3163
683.316	3056
686.818	3016
690.322	2910
693.824	2860
697.325	2790
700.825	2674
704.321	2739
707.8175	2692
711.313	2563
714.807	2537
718.3	2533
721.789	2533
725.279	2511
728.768	2393
732.255	2489
735.7392	2408
739.224	2410
742.707	2345
746.187	2445
749.668	2396
753.147	2271
756.623	2388
760.1	2408
763.575	2291
767.047	2382
770.519	2342
773.9906	2336
777.4585	2407
780.927	2427
784.394	2442
787.858	2371
791.323	2456
794.784	2289
798.246	2428
801.705	2409
805.164	2471
808.6217	2411
812.076	2425
815.532	2539
818.984	2518
822.436	2452
825.885	2412
829.335	2357
832.782	2358
836.229	2292
839.673	2304
843.118	2331
846.559	2305
849.999	2216
853.44	2236
856.878	2266
860.316	2224
863.75	2186
867.186	2228
870.618	2197
874.049	2237
877.48	2215
880.909	2206
884.335	2306
887.763	2302
891.187	2310
894.612	2230
898.034	2219
901.454	2306
904.873	2339
908.293	2314
911.709	2352
915.124	2317
918.54	2410
921.953	2502
925.364	2666
928.774	3016
932.184	3742
935.592	4684
938.998	5530
942.402	6310
945.8078	6221
949.21	6080
952.611	6137
956.01	5986
959.409	6067
962.805	6030
966.203	5916
969.597	6116
972.99	6164
976.3822	6135
979.773	6124
983.162	5841
986.55	5626
989.936	4904
993.324	4087
996.708	3444
1000.09	3089
1003.47	2862
1006.852	2725
1010.23	2591
1013.61	2326
1016.98	2190
1020.36	2101
1023.73	1948
1027.11	1865
1030.48	1806
1033.85	1744
1037.22	1603
1040.58	1603
1043.95	1502
1047.31	1491
1050.68	1533
1054.04	1452
1057.4	1386
1060.76	1419
1064.12	1395
1067.47	1352
1070.83	1353
1074.18	1398
1077.54	1370
1080.89	1395
1084.24	1361
1087.59	1392
1090.937	1305
1094.28	1352
1097.63	1293
1100.97	1356
1104.32	1325
1107.66	1334
1111	1330
1114.34	1277
1117.68	1249
1121.01	1234
1124.35	1288
1127.68	1281
1131.014	1286
1134.344	1311
1137.67	1280
1141.004	1310
1144.33	1317
1147.66	1239
1150.98	1300
1154.31	1271
1157.63	1305
1160.95	1194
1164.27	1236
1167.59	1216
1170.91	1252
1174.22	1223
1177.54	1275
1180.85	1220
1184.16	1216
1187.47	1226
1190.78	1190
1194.09	1157
1197.4	1163
1200.71	1161
1204.01	1189
1207.31	1181
1210.615	1235
1213.92	1202
1217.22	1196
1220.52	1156
1223.81	1142
1227.11	1143
1230.4	1169
1233.7	1157
1236.99	1068
1240.28	1209
1243.57	1108
1246.86	1108
1250.15	1099
1253.43	1131
1256.71	1079
1259.999	1136
1263.28	1086
1266.56	1038
1269.84	1106
1273.12	1132
1276.4	1174
1279.67	1101
1282.95	1180
1286.22	1149
1289.49	1152
1292.76	1087
1296.03	1057
1299.304	1044
1302.57	1083
1305.84	1098
1309.1	1109
1312.37	1117
1315.63	1074
1318.89	1079
1322.15	1057
1325.41	1148
1328.67	1123
1331.92	1144
1335.18	1111
1338.43	1152
1341.68	1216
1344.93	1175
1348.18	1212
1351.43	1171
1354.68	1134
1357.93	1098
1361.17	1135
1364.42	1084
1367.66	1106
1370.9	1123
1374.14	1035
1377.38	1079
1380.616	1069
1383.85	1140
1387.09	1128
1390.322	1069
1393.55	1128
1396.79	1021
1400.02	1051
1403.25	1057
1406.47	1071
1409.7	1009
1412.93	1017
1416.15	1073
1419.38	1008
1422.6	1037
1425.82	958
1429.04	1007
1432.25	1025
1435.47	1001
1438.69	994
1441.9	995
1445.12	990
1448.33	969
1451.54	1013
1454.75	1000
1457.96	1009
1461.17	987
1464.37	970
1467.58	1036
1470.78	1035
1473.98	975
1477.19	1040
1480.39	992
1483.58	992
1486.78	986
1489.98	1001
1493.17	955
1496.37	958
1499.563	937
1502.75	973
1505.94	982
1509.14	994
1512.32	964
1515.51	961
1518.7	946
1521.88	967
1525.06	986
1528.25	965
1531.43	996
1534.61	964
1537.79	996
1540.96	1047
1544.14	1024
1547.32	1136
1550.489	1060
1553.66	1090
1556.83	1198
1560	1202
1563.17	1345
1566.34	1614
1569.51	1955
1572.675	2504
1575.84	3136
1579	4127
1582.16	5162
1585.32	5777
1588.49	5483
1591.64	4164
1594.8	3002
1597.96	2208
1601.11	1603
1604.27	1436
1607.42	1254
1610.57	1158
1613.72	1076
1616.871	1078
1620.02	1065
1623.17	1022
1626.31	929
1629.46	1002
1632.6	933
1635.74	950
1638.88	905
1642.02	860
1645.16	878
1648.3	844
1651.44	864
1654.57	856
1657.7	871
1660.84	821
1663.97	860
1667.1	847
1670.23	806
1673.36	814
1676.48	807
1679.61	822
1682.74	759
1685.86	817
1688.98	796
1692.1	783
1695.22	752
1698.34	737
1701.46	764
1704.58	721
1707.69	773
1710.81	755
1713.92	738
1717.03	743
1720.14	769
1723.25	736
1726.36	758
1729.47	706
1732.58	732
1735.68	711
1738.78	745
1741.89	732
1744.99	731
1748.09	714
1751.19	779
1754.29	735
1757.39	749
1760.48	736
1763.58	738
1766.67	766
1769.76	729
1772.85	698
1775.94	697
1779.03	710
1782.12	740
1785.21	738
1788.29	732
1791.379	702
1794.46	687
1797.54	776
1800.63	763
1803.7	779
1806.78	732
1809.86	707
1812.94	742
1816.01	734
1819.09	716
1822.16	690
1825.23	729
1828.31	767
1831.38	728
1834.44	782
1837.51	720
1840.58	732
1843.64	722
1846.71	778
1849.77	710
1852.83	774
1855.89	736
1858.95	747
1862.01	731
1865.07	779
1868.125	735
1871.18	761
1874.23	713
1877.29	684
1880.34	716
1883.39	651
1886.44	719
1889.49	686
1892.54	720
1895.58	698
1898.63	669
1901.67	671
1904.72	672
1907.76	661
1910.8	687
1913.84	649
1916.88	699
1919.91	633
1922.95	687
1925.98	640
1929.02	667
1932.052	652
1935.08	639
1938.11	673
1941.14	679
1944.17	656
1947.2	693
1950.23	670
1953.25	687
1956.28	692
1959.3	653
1962.32	648
1965.34	688
1968.36	715
1971.38	667
1974.4	727
1977.41	735
1980.43	713
1983.44	711
1986.46	702
1989.469	644
1992.48	729
1995.49	659
1998.498	718
2001.51	695
2004.512	704
2007.52	700
2010.52	672
2013.52	685
2016.527	610
2019.53	651
2022.528	657
2025.527	658
2028.52	664
2031.52	621
2034.52	628
2037.51	620
2040.51	621
2043.5	639
2046.49	590
2049.478	602
2052.47	582
2055.46	563
2058.44	595
2061.43	569
2064.41	603
2067.4	608
2070.38	618
2073.36	609
2076.34	618
2079.32	562
2082.3	603
2085.28	590
2088.25	602
2091.23	561
2094.2	576
2097.17	584
2100.146	599
2103.12	569
2106.09	559
2109.05	554
2112.02	580
2114.99	563
2117.95	591
2120.92	637
2123.88	593
2126.844	553
2129.804	604
2132.76	586
2135.72	551
2138.68	570
2141.64	560
2144.59	556
2147.55	553
2150.5	540
2153.46	572
2156.41	557
2159.36	577
2162.31	543
2165.25	534
2168.2	550
2171.15	565
2174.09	545
2177.04	529
2179.98	529
2182.92	548
2185.86	548
2188.8	550
2191.74	548
2194.68	548
2197.61	540
2200.551	548
2203.48	521
2206.418	507
2209.35	546
2212.28	541
2215.21	537
2218.14	540
2221.07	550
2224	552
2226.92	517
2229.85	576
2232.77	580
2235.69	583
2238.62	557
2241.54	543
2244.46	582
2247.38	598
2250.29	554
2253.21	545
2256.13	581
2259.04	557
2261.95	576
2264.87	550
2267.78	572
2270.69	568
2273.6	553
2276.51	530
2279.41	554
2282.32	594
2285.22	542
2288.13	543
2291.031	533
2293.93	561
2296.834	535
2299.73	543
2302.63	554
2305.53	500
2308.43	516
2311.32	535
2314.22	562
2317.11	508
2320.01	531
2322.9	494
2325.79	547
2328.676	497
2331.56	534
2334.45	538
2337.34	511
2340.23	531
2343.11	523
2345.99	521
2348.87	523
2351.76	533
2354.64	539
2357.52	535
2360.39	543
2363.27	526
2366.15	526
2369.02	494
2371.9	523
2374.77	574
2377.64	546
2380.51	534
2383.38	501
2386.25	554
2389.12	538
2391.99	526
2394.853	554
2397.72	526
2400.58	548
2403.45	589
2406.31	560
2409.17	552
2412.03	575
2414.89	578
2417.74	582
2420.6	602
2423.46	586
2426.31	575
2429.16	610
2432.02	659
2434.87	643
2437.72	690
2440.57	710
2443.42	847
2446.27	875
2449.11	977
2451.96	1044
2454.8	1039
2457.65	1097
2460.49	1003
2463.33	1037
2466.17	982
2469.01	925
2471.85	900
2474.69	859
2477.53	796
2480.36	785
2483.19	749
2486.03	730
2488.86	664
2491.69	714
2494.52	680
2497.35	677
2500.18	620
2503.01	624
2505.84	644
2508.66	619
2511.49	590
2514.31	662
2517.13	586
2519.95	611
2522.78	626
2525.59	620
2528.41	609
2531.23	609
2534.05	586
2536.86	605
2539.68	587
2542.491	542
2545.3	564
2548.12	580
2550.93	576
2553.74	560
2556.54	619
2559.35	578
2562.16	629
2564.96	581
2567.77	612
2570.57	614
2573.375	565
2576.177	576
2578.978	585
2581.78	611
2584.58	632
2587.375	638
2590.17	616
2592.97	632
2595.762	645
2598.56	700
2601.35	691
2604.14	669
2606.93	685
2609.72	710
2612.51	788
2615.3	775
2618.09	788
2620.87	883
2623.658	901
2626.44	961
2629.22	1090
2632.01	1119
2634.79	1224
2637.57	1377
2640.35	1548
2643.13	1806
2645.9	2107
2648.68	2478
2651.45	3018
2654.23	3672
2657	4478
2659.77	5501
2662.55	6687
2665.32	8138
2668.09	9681
2670.85	11169
2673.62	12343
2676.39	13087
2679.15	13318
2681.92	13222
2684.68	12256
2687.45	11222
2690.21	10137
2692.968	8772
2695.73	7257
2698.49	6048
2701.24	4880
2704.001	3999
2706.76	3362
2709.51	2685
2712.27	2293
2715.02	1928
2717.772	1757
2720.52	1533
2723.27	1393
2726.02	1290
2728.77	1163
2731.52	1072
2734.26	958
2737.01	913
2739.75	859
2742.5	875
2745.24	770
2747.98	770
2750.72	702
2753.46	714
2756.2	712
2758.939	668
2761.68	623
2764.41	658
2767.15	634
2769.88	587
2772.613	598
2775.345	590
2778.08	575
2780.81	555
2783.54	562
2786.26	545
2788.991	523
2791.72	497
2794.44	530
2797.17	500
2799.89	516
2802.61	530
2805.334	513
2808.05	515
2810.77	535
2813.49	521
2816.21	484
2818.93	480
2821.65	492
2824.36	490
2827.07	466
2829.79	496
2832.5	492
2835.21	468
2837.92	466
2840.63	461
2843.34	515
2846.05	507
2848.75	473
2851.46	459
2854.16	469
2856.87	492
2859.57	440
2862.272	461
2864.97	445
2867.67	460
2870.37	461
2873.07	450
2875.77	441
2878.46	451
2881.16	464
2883.85	453
2886.55	440
2889.24	439
2891.93	446
2894.62	454
2897.311	447
2900	462
2902.688	460
2905.37	434
2908.061	421
2910.75	414
2913.43	411
2916.11	394
2918.8	414
2921.48	406
2924.16	429
2926.84	418
2929.52	432
2932.19	434
2934.87	448
2937.55	407
2940.22	418
2942.89	407
2945.57	393
2948.24	426
2950.91	398
2953.58	412
2956.25	388
2958.92	412
2961.59	426
2964.25	408
2966.92	395
2969.59	411
2972.25	414
2974.91	367
2977.57	390
2980.24	396
2982.9	379
2985.55	430
2988.21	382
2990.87	416
2993.53	375
2996.18	420
2998.84	398
3001.49	378
3004.14	393
3006.8	408
3009.45	395
3012.1	393
3014.75	374
3017.396	396
3020.04	401
3022.69	382
3025.34	373
3027.98	381
3030.63	411
3033.27	349
3035.91	389
3038.55	379
3041.19	397
3043.83	396
3046.47	427
3049.11	365
3051.74	381
3054.38	397
3057.01	389
3059.65	384
3062.281	351
3064.91	389
3067.55	393
3070.17	350
3072.8	377
3075.43	393
3078.06	369
3080.69	384
3083.31	392
3085.94	345
3088.563	385
3091.19	388
3093.81	384
3096.43	393
3099.05	347
3101.67	370
3104.29	368
3106.91	361
3109.52	359
3112.14	380
3114.75	349
3117.37	372
3119.98	372
3122.59	370
3125.21	360
3127.82	378
3130.427	355
3133.04	363
3135.64	367
3138.251	366
3140.86	347
3143.46	381
3146.07	411
3148.67	376
3151.27	351
3153.874	348
3156.48	337
3159.08	361
3161.67	366
3164.27	367
3166.87	382
3169.47	338
3172.06	367
3174.66	330
3177.251	373
3179.85	348
3182.437	358
3185.03	366
3187.62	364
3190.21	335
3192.8	357
3195.38	382
3197.97	353
3200.56	333
3203.14	316
3205.73	341
3208.31	336
3210.89	344
3213.47	336
3216.054	362
3218.63	384
3221.21	388
3223.791	413
3226.37	416
3228.95	415
3231.52	529
3234.1	564
3236.67	664
3239.241	787
3241.81	962
3244.38	1118
3246.96	1121
3249.52	1086
3252.09	977
3254.66	861
3257.23	692
3259.79	589
3262.36	498
3264.92	428
3267.49	417
3270.05	387
3272.61	356
3275.17	327
3277.73	349
3280.29	338
3282.85	326
3285.41	319
3287.96	317
3290.52	349
3293.07	366
3295.63	328
3298.18	325
3300.73	343
3303.28	329
3305.83	340
3308.38	324
3310.93	328
3313.479	320
3316.03	318
3318.57	304
3321.12	319
3323.66	322
3326.21	316
3328.75	322
3331.29	295
3333.83	294
3336.37	305
3338.91	322
3341.448	295
3343.99	317
3346.52	316
3349.06	288
3351.593	298
3354.13	306
3356.66	306
3359.19	309
3361.72	287
3364.25	291
3366.79	297
3369.31	306
3371.84	298
3374.37	301
3376.9	308
3379.42	300
3381.95	302
3384.47	303
3386.99	269
3389.52	306
3392.04	299
3394.56	289
3397.08	314
3399.6	296
3402.12	350
3404.63	303
3407.15	325
3409.66	319
3412.179	308
3414.69	339
3417.21	309
3419.72	314
3422.23	322
3424.74	338
3427.25	273
3429.76	322
3432.27	316
3434.77	290
3437.28	302
3439.79	301
3442.29	289
3444.79	324
3447.3	290
3449.8	294
3452.3	322
3454.8	303
3457.3	301
3459.8	310
3462.3	301
3464.79	295
3467.29	271
3469.79	278
3472.28	293
3474.77	275
3477.27	311
3479.76	289
3482.25	286
3484.741	275
3487.23	286
3489.72	287
3492.21	298
3494.69	274
3497.18	286
3499.666	300
3502.15	280
3504.63	295
3507.12	251
3509.6	282
3512.08	290
3514.56	285
3517.04	277
3519.521	288
3522	302
3524.48	284
3526.95	266
3529.43	256
3531.9	302
3534.38	291
3536.85	292
3539.32	295
3541.79	301
3544.26	260
3546.73	264
3549.2	294
3551.67	291
3554.14	280
3556.61	307
3559.07	257
3561.54	285
3564	284
3566.46	263
3568.93	297
3571.39	264
3573.85	279
3576.31	299
3578.77	283
3581.23	285
3583.68	270
3586.14	257
3588.6	273
3591.052	285
3593.51	277
3595.96	275
3598.41	308
3600.865	264
3603.32	286
3605.77	253
3608.22	264
3610.665	266
3613.11	262
3615.56	277
3618.01	242
3620.45	264
3622.896	266
3625.34	278
3627.78	277
3630.22	249
3632.67	275
3635.11	256
3637.55	272
3639.99	285
3642.42	259
3644.86	257
3647.3	246
3649.73	260
3652.17	249
3654.6	228
3657.04	250
3659.47	259
3661.9	261