File: data/SEM_Raman_Data/KZPd_180321-1/20180321-1_sample.txt
672.793	3075
676.3017	2837
679.809	2892
683.316	2886
686.818	2790
690.322	2696
693.824	2649
697.325	2561
700.825	2536
704.321	2516
707.8175	2467
711.313	2381
714.807	2279
718.3	2351
721.789	2279
725.279	2302
728.768	2325
732.255	2254
735.7392	2245
739.224	2236
742.707	2241
746.187	2229
749.668	2065
753.147	2107
756.623	2229
760.1	2151
763.575	2192
767.047	2211
770.519	2197
773.9906	2121
777.4585	2179
780.927	2097
784.394	2231
787.858	2172
791.323	2203
794.784	2181
798.246	2171
801.705	2258
805.164	2301
808.6217	2265
812.076	2252
815.532	2260
818.984	2360
822.436	2254
825.885	2287
829.335	2315
832.782	2252
836.229	2175
839.673	2142
843.118	2118
846.559	2136
849.999	2086
853.44	2082
856.878	2066
860.316	2130
863.75	2076
867.186	2053
870.618	2088
874.049	2045
877.48	2079
880.909	2156
884.335	2130
887.763	2102
891.187	2167
894.612	2097
898.034	2157
901.454	2086
904.873	2148
908.293	2187
911.709	2103
915.124	2207
918.54	2258
921.953	2329
925.364	2411
928.774	2780
932.184	3317
935.592	3982
938.998	4885
942.402	5723
945.8078	5979
949.21	5583
952.611	5644
956.01	5551
959.409	5586
962.805	5438
966.203	5723
969.597	5610
972.99	5739
976.3822	5767
979.773	5758
983.162	5628
986.55	5380
989.936	4752
993.324	3905
996.708	3256
1000.09	2929
1003.47	2557
1006.852	2507
1010.23	2390
1013.61	2236
1016.98	2138
1020.36	1916
1023.73	1914
1027.11	1772
1030.48	1701
1033.85	1592
1037.22	1505
1040.58	1407
1043.95	1392
1047.31	1371
1050.68	1419
1054.04	1393
1057.4	1348
1060.76	1405
1064.12	1360
1067.47	1337
1070.83	1297
1074.18	1294
1077.54	1301
1080.89	1262
1084.24	1263
1087.59	1240
1090.937	1274
1094.28	1222
1097.63	1203
1100.97	1239
1104.32	1229
1107.66	1257
1111	1215
1114.34	1241
1117.68	1153
1121.01	1174
1124.35	1170
1127.68	1220
1131.014	1181
1134.344	1159
1137.67	1159
1141.004	1179
1144.33	1143
1147.66	1220
1150.98	1211
1154.31	1177
1157.63	1195
1160.95	1209
1164.27	1117
1167.59	1186
1170.91	1114
1174.22	1123
1177.54	1108
1180.85	1162
1184.16	1091
1187.47	1098
1190.78	1110
1194.09	1086
1197.4	1084
1200.71	1099
1204.01	1154
1207.31	1113
1210.615	1078
1213.92	1097
1217.22	1093
1220.52	1121
1223.81	1071
1227.11	1118
1230.4	1061
1233.7	1073
1236.99	1073
1240.28	1033
1243.57	1033
1246.86	1027
1250.15	1066
1253.43	1078
1256.71	986
1259.999	1034
1263.28	1041
1266.56	1011
1269.84	1005
1273.12	1018
1276.4	939
1279.67	1017
1282.95	981
1286.22	986
1289.49	1054
1292.76	1038
1296.03	1028
1299.304	998
1302.57	993
1305.84	1001
1309.1	1020
1312.37	1002
1315.63	1006
1318.89	1013
1322.15	940
1325.41	1025
1328.67	989
1331.92	1044
1335.18	1012
1338.43	1041
1341.68	1103
1344.93	1095
1348.18	1093
1351.43	1035
1354.68	955
1357.93	1008
1361.17	966
1364.42	977
1367.66	1024
1370.9	992
1374.14	987
1377.38	988
1380.616	1003
1383.85	1012
1387.09	996
1390.322	980
1393.55	1004
1396.79	961
1400.02	949
1403.25	962
1406.47	950
1409.7	962
1412.93	941
1416.15	933
1419.38	948
1422.6	907
1425.82	900
1429.04	916
1432.25	942
1435.47	911
1438.69	956
1441.9	904
1445.12	926
1448.33	932
1451.54	929
1454.75	915
1457.96	900
1461.17	941
1464.37	944
1467.58	915
1470.78	888
1473.98	903
1477.19	866
1480.39	887
1483.58	852
1486.78	860
1489.98	901
1493.17	889
1496.37	883
1499.563	850
1502.75	861
1505.94	889
1509.14	870
1512.32	863
1515.51	851
1518.7	848
1521.88	908
1525.06	917
1528.25	864
1531.43	883
1534.61	914
1537.79	936
1540.96	950
1544.14	915
1547.32	933
1550.489	996
1553.66	962
1556.83	1134
1560	1216
1563.17	1358
1566.34	1549
1569.51	1855
1572.675	2367
1575.84	2819
1579	3639
1582.16	4469
1585.32	4860
1588.49	4157
1591.64	2802
1594.8	1980
1597.96	1529
1601.11	1295
1604.27	1084
1607.42	1071
1610.57	1000
1613.72	944
1616.871	871
1620.02	905
1623.17	892
1626.31	836
1629.46	836
1632.6	868
1635.74	833
1638.88	804
1642.02	806
1645.16	845
1648.3	770
1651.44	765
1654.57	774
1657.7	760
1660.84	759
1663.97	760
1667.1	717
1670.23	761
1673.36	726
1676.48	745
1679.61	749
1682.74	724
1685.86	723
1688.98	700
1692.1	723
1695.22	697
1698.34	690
1701.46	711
1704.58	673
1707.69	731
1710.81	682
1713.92	715
1717.03	681
1720.14	721
1723.25	698
1726.36	668
1729.47	665
1732.58	687
1735.68	703
1738.78	718
1741.89	678
1744.99	656
1748.09	681
1751.19	710
1754.29	710
1757.39	682
1760.48	694
1763.58	706
1766.67	663
1769.76	686
1772.85	706
1775.94	648
1779.03	706
1782.12	686
1785.21	677
1788.29	686
1791.379	664
1794.46	673
1797.54	691
1800.63	697
1803.7	696
1806.78	673
1809.86	702
1812.94	698
1816.01	687
1819.09	686
1822.16	669
1825.23	666
1828.31	681
1831.38	642
1834.44	683
1837.51	689
1840.58	713
1843.64	658
1846.71	682
1849.77	698
1852.83	693
1855.89	709
1858.95	702
1862.01	725
1865.07	710
1868.125	669
1871.18	671
1874.23	669
1877.29	619
1880.34	648
1883.39	691
1886.44	640
1889.49	631
1892.54	653
1895.58	656
1898.63	629
1901.67	645
1904.72	641
1907.76	602
1910.8	630
1913.84	607
1916.88	631
1919.91	602
1922.95	639
1925.98	595
1929.02	624
1932.052	627
1935.08	609
1938.11	629
1941.14	588
1944.17	628
1947.2	646
1950.23	628
1953.25	654
1956.28	630
1959.3	641
1962.32	651
1965.34	649
1968.36	641
1971.38	631
1974.4	659
1977.41	646
1980.43	654
1983.44	656
1986.46	622
1989.469	652
1992.48	667
1995.49	645
1998.498	641
2001.51	618
2004.512	627
2007.52	629
2010.52	586
2013.52	655
2016.527	587
2019.53	598
2022.528	603
2025.527	603
2028.52	590
2031.52	594
2034.52	600
2037.51	578
2040.51	590
2043.5	550
2046.49	628
2049.478	562
2052.47	530
2055.46	562
2058.44	588
2061.43	561
2064.41	606
2067.4	559
2070.38	546
2073.36	526
2076.34	574
2079.32	541
2082.3	565
2085.28	577
2088.25	592
2091.23	566
2094.2	532
2097.17	563
2100.146	562
2103.12	560
2106.09	551
2109.05	562
2112.02	578
2114.99	545
2117.95	550
2120.92	582
2123.88	568
2126.844	544
2129.804	533
2132.76	555
2135.72	538
2138.68	540
2141.64	524
2144.59	553
2147.55	521
2150.5	536
2153.46	555
2156.41	537
2159.36	553
2162.31	511
2165.25	550
2168.2	525
2171.15	516
2174.09	512
2177.04	522
2179.98	545
2182.92	505
2185.86	498
2188.8	532
2191.74	495
2194.68	503
2197.61	510
2200.551	477
2203.48	526
2206.418	497
2209.35	483
2212.28	497
2215.21	567
2218.14	496
2221.07	553
2224	531
2226.92	508
2229.85	522
2232.77	515
2235.69	537
2238.62	558
2241.54	524
2244.46	518
2247.38	547
2250.29	527
2253.21	526
2256.13	541
2259.04	514
2261.95	515
2264.87	514
2267.78	542
2270.69	497
2273.6	557
2276.51	532
2279.41	538
2282.32	481
2285.22	518
2288.13	512
2291.031	502
2293.93	535
2296.834	511
2299.73	515
2302.63	492
2305.53	502
2308.43	500
2311.32	495
2314.22	504
2317.11	506
2320.01	497
2322.9	504
2325.79	490
2328.676	500
2331.56	496
2334.45	506
2337.34	512
2340.23	476
2343.11	507
2345.99	496
2348.87	498
2351.76	508
2354.64	494
2357.52	517
2360.39	498
2363.27	509
2366.15	499
2369.02	493
2371.9	498
2374.77	484
2377.64	495
2380.51	462
2383.38	460
2386.25	508
2389.12	521
2391.99	498
2394.853	502
2397.72	519
2400.58	522
2403.45	511
2406.31	517
2409.17	579
2412.03	514
2414.89	541
2417.74	552
2420.6	531
2423.46	564
2426.31	583
2429.16	562
2432.02	610
2434.87	631
2437.72	686
2440.57	703
2443.42	723
2446.27	859
2449.11	868
2451.96	923
2454.8	939
2457.65	890
2460.49	874
2463.33	859
2466.17	845
2469.01	779
2471.85	745
2474.69	713
2477.53	695
2480.36	656
2483.19	667
2486.03	669
2488.86	621
2491.69	597
2494.52	641
2497.35	573
2500.18	570
2503.01	590
2505.84	562
2508.66	590
2511.49	590
2514.31	536
2517.13	582
2519.95	535
2522.78	524
2525.59	532
2528.41	517
2531.23	541
2534.05	550
2536.86	538
2539.68	565
2542.491	534
2545.3	552
2548.12	532
2550.93	550
2553.74	550
2556.54	540
2559.35	564
2562.16	566
2564.96	566
2567.77	559
2570.57	548
2573.375	576
2576.177	587
2578.978	555
2581.78	575
2584.58	574
2587.375	547
2590.17	599
2592.97	616
2595.762	603
2598.56	635
2601.35	660
2604.14	638
2606.93	688
2609.72	673
2612.51	714
2615.3	771
2618.09	822
2620.87	856
2623.658	918
2626.44	1011
2629.22	1059
2632.01	1196
2634.79	1380
2637.57	1570
2640.35	1820
2643.13	2013
2645.9	2422
2648.68	2952
2651.45	3529
2654.23	4249
2657	5232
2659.77	6095
2662.55	7299
2665.32	8579
2668.09	9869
2670.85	10343
2673.62	10720
2676.39	10535
2679.15	10224
2681.92	9440
2684.68	8333
2687.45	7142
2690.21	5955
2692.968	4945
2695.73	4069
2698.49	3308
2701.24	2683
2704.001	2345
2706.76	2034
2709.51	1739
2712.27	1536
2715.02	1401
2717.772	1249
2720.52	1127
2723.27	972
2726.02	935
2728.77	827
2731.52	816
2734.26	795
2737.01	743
2739.75	744
2742.5	668
2745.24	659
2747.98	623
2750.72	601
2753.46	560
2756.2	581
2758.939	576
2761.68	599
2764.41	549
2767.15	563
2769.88	517
2772.613	490
2775.345	532
2778.08	484
2780.81	484
2783.54	517
2786.26	495
2788.991	488
2791.72	477
2794.44	496
2797.17	490
2799.89	499
2802.61	443
2805.334	483
2808.05	489
2810.77	471
2813.49	447
2816.21	462
2818.93	431
2821.65	464
2824.36	406
2827.07	454
2829.79	443
2832.5	465
2835.21	426
2837.92	438
2840.63	453
2843.34	418
2846.05	422
2848.75	477
2851.46	447
2854.16	413
2856.87	413
2859.57	461
2862.272	418
2864.97	448
2867.67	427
2870.37	431
2873.07	428
2875.77	431
2878.46	402
2881.16	417
2883.85	444
2886.55	396
2889.24	418
2891.93	405
2894.62	432
2897.311	386
2900	401
2902.688	422
2905.37	401
2908.061	388
2910.75	411
2913.43	414
2916.11	417
2918.8	406
2921.48	369
2924.16	399
2926.84	400
2929.52	404
2932.19	373
2934.87	355
2937.55	383
2940.22	400
2942.89	385
2945.57	405
2948.24	384
2950.91	388
2953.58	377
2956.25	393
2958.92	369
2961.59	395
2964.25	364
2966.92	357
2969.59	339
2972.25	364
2974.91	359
2977.57	359
2980.24	350
2982.9	389
2985.55	377
2988.21	350
2990.87	373
2993.53	362
2996.18	349
2998.84	363
3001.49	364
3004.14	354
3006.8	355
3009.45	367
3012.1	402
3014.75	367
3017.396	340
3020.04	342
3022.69	375
3025.34	388
3027.98	380
3030.63	383
3033.27	376
3035.91	361
3038.55	372
3041.19	353
3043.83	373
3046.47	356
3049.11	339
3051.74	375
3054.38	374
3057.01	362
3059.65	340
3062.281	354
3064.91	367
3067.55	366
3070.17	344
3072.8	368
3075.43	356
3078.06	351
3080.69	366
3083.31	322
3085.94	367
3088.563	363
3091.19	366
3093.81	363
3096.43	363
3099.05	356
3101.67	352
3104.29	346
3106.91	355
3109.52	338
3112.14	348
3114.75	357
3117.37	336
3119.98	346
3122.59	358
3125.21	356
3127.82	328
3130.427	334
3133.04	354
3135.64	352
3138.251	356
3140.86	337
3143.46	333
3146.07	344
3148.67	336
3151.27	321
3153.874	328
3156.48	349
3159.08	337
3161.67	326
3164.27	333
3166.87	308
3169.47	339
3172.06	339
3174.66	335
3177.251	344
3179.85	360
3182.437	356
3185.03	322
3187.62	350
3190.21	355
3192.8	328
3195.38	310
3197.97	325
3200.56	312
3203.14	331
3205.73	317
3208.31	355
3210.89	360
3213.47	364
3216.054	350
3218.63	380
3221.21	410
3223.791	442
3226.37	451
3228.95	500
3231.52	546
3234.1	623
3236.67	721
3239.241	883
3241.81	951
3244.38	880
3246.96	856
3249.52	777
3252.09	684
3254.66	600
3257.23	509
3259.79	450
3262.36	393
3264.92	375
3267.49	342
3270.05	343
3272.61	349
3275.17	322
3277.73	343
3280.29	357
3282.85	293
3285.41	305
3287.96	300
3290.52	321
3293.07	351
3295.63	295
3298.18	279
3300.73	313
3303.28	311
3305.83	323
3308.38	300
3310.93	318
3313.479	286
3316.03	313
3318.57	288
3321.12	304
3323.66	298
3326.21	265
3328.75	275
3331.29	311
3333.83	283
3336.37	289
3338.91	291
3341.448	308
3343.99	286
3346.52	276
3349.06	288
3351.593	309
3354.13	268
3356.66	282
3359.19	278
3361.72	308
3364.25	290
3366.79	297
3369.31	290
3371.84	300
3374.37	280
3376.9	331
3379.42	304
3381.95	299
3384.47	280
3386.99	295
3389.52	320
3392.04	313
3394.56	278
3397.08	276
3399.6	282
3402.12	296
3404.63	323
3407.15	300
3409.66	282
3412.179	277
3414.69	293
3417.21	294
3419.72	294
3422.23	302
3424.74	295
3427.25	293
3429.76	290
3432.27	285
3434.77	286
3437.28	282
3439.79	289
3442.29	304
3444.79	303
3447.3	306
3449.8	303
3452.3	280
3454.8	270
3457.3	284
3459.8	290
3462.3	297
3464.79	280
3467.29	286
3469.79	260
3472.28	262
3474.77	297
3477.27	292
3479.76	265
3482.25	297
3484.741	262
3487.23	275
3489.72	289
3492.21	270
3494.69	265
3497.18	280
3499.666	268
3502.15	252
3504.63	258
3507.12	282
3509.6	288
3512.08	272
3514.56	259
3517.04	282
3519.521	244
3522	259
3524.48	270
3526.95	278
3529.43	280
3531.9	263
3534.38	303
3536.85	263
3539.32	257
3541.79	276
3544.26	280
3546.73	261
3549.2	265
3551.67	271
3554.14	283
3556.61	272
3559.07	267
3561.54	286
3564	267
3566.46	270
3568.93	249
3571.39	270
3573.85	280
3576.31	278
3578.77	273
3581.23	263
3583.68	290
3586.14	259
3588.6	266
3591.052	274
3593.51	270
3595.96	260
3598.41	266
3600.865	273
3603.32	278
3605.77	273
3608.22	265
3610.665	262
3613.11	271
3615.56	257
3618.01	260
3620.45	265
3622.896	257
3625.34	257
3627.78	249
3630.22	246
3632.67	277
3635.11	259
3637.55	238
3639.99	259
3642.42	264
3644.86	242
3647.3	247
3649.73	261
3652.17	253
3654.6	237
3657.04	234
3659.47	252
3661.9	268