File: data/SEM_Raman_Data/KZPd_171010-2/KZPd_171010-2_Raman1.txt
672.793	287
676.3017	298
679.809	263
683.316	303
686.818	285
690.322	305
693.824	253
697.325	282
700.825	238
704.321	261
707.8175	265
711.313	251
714.807	247
718.3	228
721.789	238
725.279	236
728.768	230
732.255	222
735.7392	225
739.224	228
742.707	216
746.187	241
749.668	231
753.147	231
756.623	212
760.1	225
763.575	246
767.047	228
770.519	225
773.9906	217
777.4585	217
780.927	242
784.394	226
787.858	222
791.323	250
794.784	208
798.246	224
801.705	218
805.164	228
808.6217	234
812.076	216
815.532	210
818.984	203
822.436	238
825.885	244
829.335	232
832.782	233
836.229	225
839.673	214
843.118	207
846.559	196
849.999	193
853.44	219
856.878	212
860.316	222
863.75	205
867.186	227
870.618	213
874.049	211
877.48	215
880.909	229
884.335	208
887.763	212
891.187	229
894.612	214
898.034	223
901.454	175
904.873	212
908.293	203
911.709	198
915.124	206
918.54	216
921.953	225
925.364	229
928.774	236
932.184	301
935.592	354
938.998	402
942.402	499
945.8078	580
949.21	555
952.611	555
956.01	571
959.409	600
962.805	570
966.203	589
969.597	565
972.99	531
976.3822	610
979.773	592
983.162	583
986.55	534
989.936	523
993.324	421
996.708	366
1000.09	326
1003.47	284
1006.852	280
1010.23	254
1013.61	230
1016.98	247
1020.36	223
1023.73	213
1027.11	171
1030.48	170
1033.85	173
1037.22	170
1040.58	175
1043.95	155
1047.31	163
1050.68	138
1054.04	130
1057.4	150
1060.76	155
1064.12	139
1067.47	140
1070.83	127
1074.18	145
1077.54	132
1080.89	115
1084.24	138
1087.59	133
1090.937	121
1094.28	137
1097.63	146
1100.97	131
1104.32	138
1107.66	143
1111	145
1114.34	146
1117.68	138
1121.01	122
1124.35	142
1127.68	132
1131.014	146
1134.344	140
1137.67	163
1141.004	137
1144.33	129
1147.66	127
1150.98	128
1154.31	126
1157.63	134
1160.95	114
1164.27	136
1167.59	142
1170.91	138
1174.22	133
1177.54	115
1180.85	125
1184.16	114
1187.47	117
1190.78	131
1194.09	118
1197.4	116
1200.71	127
1204.01	131
1207.31	111
1210.615	129
1213.92	120
1217.22	115
1220.52	114
1223.81	120
1227.11	109
1230.4	116
1233.7	119
1236.99	137
1240.28	100
1243.57	124
1246.86	107
1250.15	96
1253.43	126
1256.71	130
1259.999	106
1263.28	121
1266.56	120
1269.84	118
1273.12	100
1276.4	110
1279.67	131
1282.95	121
1286.22	108
1289.49	115
1292.76	123
1296.03	112
1299.304	116
1302.57	104
1305.84	128
1309.1	118
1312.37	104
1315.63	122
1318.89	123
1322.15	124
1325.41	131
1328.67	132
1331.92	159
1335.18	150
1338.43	166
1341.68	194
1344.93	177
1348.18	176
1351.43	160
1354.68	155
1357.93	146
1361.17	133
1364.42	133
1367.66	128
1370.9	126
1374.14	130
1377.38	123
1380.616	109
1383.85	126
1387.09	109
1390.322	110
1393.55	108
1396.79	118
1400.02	100
1403.25	100
1406.47	102
1409.7	104
1412.93	111
1416.15	104
1419.38	115
1422.6	98
1425.82	90
1429.04	95
1432.25	91
1435.47	119
1438.69	105
1441.9	93
1445.12	104
1448.33	120
1451.54	90
1454.75	106
1457.96	108
1461.17	120
1464.37	87
1467.58	95
1470.78	97
1473.98	95
1477.19	115
1480.39	102
1483.58	107
1486.78	116
1489.98	117
1493.17	113
1496.37	96
1499.563	108
1502.75	118
1505.94	117
1509.14	125
1512.32	105
1515.51	106
1518.7	106
1521.88	125
1525.06	108
1528.25	122
1531.43	129
1534.61	106
1537.79	103
1540.96	108
1544.14	110
1547.32	95
1550.489	123
1553.66	119
1556.83	124
1560	123
1563.17	116
1566.34	154
1569.51	191
1572.675	225
1575.84	269
1579	355
1582.16	411
1585.32	495
1588.49	537
1591.64	444
1594.8	328
1597.96	242
1601.11	169
1604.27	153
1607.42	129
1610.57	124
1613.72	120
1616.871	119
1620.02	110
1623.17	109
1626.31	110
1629.46	106
1632.6	87
1635.74	88
1638.88	88
1642.02	92
1645.16	98
1648.3	96
1651.44	73
1654.57	94
1657.7	93
1660.84	103
1663.97	68
1667.1	80
1670.23	92
1673.36	79
1676.48	79
1679.61	98
1682.74	87
1685.86	66
1688.98	93
1692.1	80
1695.22	80
1698.34	84
1701.46	78
1704.58	76
1707.69	75
1710.81	82
1713.92	73
1717.03	77
1720.14	79
1723.25	82
1726.36	59
1729.47	72
1732.58	85
1735.68	72
1738.78	73
1741.89	75
1744.99	74
1748.09	91
1751.19	78
1754.29	62
1757.39	75
1760.48	68
1763.58	87
1766.67	91
1769.76	82
1772.85	81
1775.94	68
1779.03	78
1782.12	69
1785.21	75
1788.29	71
1791.379	73
1794.46	71
1797.54	76
1800.63	74
1803.7	77
1806.78	84
1809.86	82
1812.94	75
1816.01	74
1819.09	81
1822.16	91
1825.23	67
1828.31	76
1831.38	74
1834.44	74
1837.51	67
1840.58	70
1843.64	74
1846.71	66
1849.77	76
1852.83	74
1855.89	75
1858.95	76
1862.01	75
1865.07	77
1868.125	75
1871.18	77
1874.23	85
1877.29	71
1880.34	69
1883.39	75
1886.44	69
1889.49	71
1892.54	71
1895.58	77
1898.63	85
1901.67	71
1904.72	74
1907.76	64
1910.8	71
1913.84	76
1916.88	76
1919.91	65
1922.95	64
1925.98	69
1929.02	62
1932.052	59
1935.08	68
1938.11	73
1941.14	72
1944.17	76
1947.2	73
1950.23	61
1953.25	63
1956.28	73
1959.3	77
1962.32	73
1965.34	71
1968.36	78
1971.38	66
1974.4	70
1977.41	72
1980.43	83
1983.44	62
1986.46	76
1989.469	72
1992.48	78
1995.49	60
1998.498	74
2001.51	68
2004.512	68
2007.52	73
2010.52	68
2013.52	79
2016.527	78
2019.53	71
2022.528	56
2025.527	68
2028.52	78
2031.52	69
2034.52	67
2037.51	67
2040.51	56
2043.5	65
2046.49	67
2049.478	65
2052.47	65
2055.46	63
2058.44	63
2061.43	67
2064.41	71
2067.4	64
2070.38	52
2073.36	69
2076.34	59
2079.32	61
2082.3	67
2085.28	73
2088.25	68
2091.23	61
2094.2	68
2097.17	58
2100.146	70
2103.12	68
2106.09	64
2109.05	74
2112.02	59
2114.99	71
2117.95	64
2120.92	54
2123.88	68
2126.844	68
2129.804	73
2132.76	51
2135.72	70
2138.68	58
2141.64	66
2144.59	67
2147.55	66
2150.5	57
2153.46	68
2156.41	68
2159.36	62
2162.31	65
2165.25	69
2168.2	56
2171.15	57
2174.09	77
2177.04	51
2179.98	58
2182.92	66
2185.86	55
2188.8	61
2191.74	54
2194.68	64
2197.61	76
2200.551	66
2203.48	60
2206.418	67
2209.35	68
2212.28	59
2215.21	58
2218.14	63
2221.07	51
2224	65
2226.92	64
2229.85	67
2232.77	66
2235.69	74
2238.62	67
2241.54	71
2244.46	62
2247.38	65
2250.29	76
2253.21	56
2256.13	71
2259.04	56
2261.95	67
2264.87	62
2267.78	64
2270.69	58
2273.6	73
2276.51	62
2279.41	63
2282.32	69
2285.22	59
2288.13	64
2291.031	54
2293.93	62
2296.834	66
2299.73	51
2302.63	71
2305.53	59
2308.43	62
2311.32	55
2314.22	74
2317.11	71
2320.01	59
2322.9	56
2325.79	63
2328.676	55
2331.56	56
2334.45	58
2337.34	67
2340.23	52
2343.11	75
2345.99	67
2348.87	61
2351.76	58
2354.64	54
2357.52	65
2360.39	71
2363.27	65
2366.15	68
2369.02	55
2371.9	66
2374.77	70
2377.64	64
2380.51	64
2383.38	63
2386.25	61
2389.12	59
2391.99	62
2394.853	64
2397.72	72
2400.58	66
2403.45	60
2406.31	61
2409.17	68
2412.03	65
2414.89	52
2417.74	69
2420.6	70
2423.46	76
2426.31	69
2429.16	85
2432.02	84
2434.87	82
2437.72	73
2440.57	96
2443.42	90
2446.27	104
2449.11	96
2451.96	104
2454.8	94
2457.65	101
2460.49	95
2463.33	100
2466.17	90
2469.01	80
2471.85	76
2474.69	90
2477.53	79
2480.36	70
2483.19	78
2486.03	68
2488.86	84
2491.69	75
2494.52	78
2497.35	74
2500.18	66
2503.01	69
2505.84	68
2508.66	80
2511.49	62
2514.31	63
2517.13	60
2519.95	65
2522.78	78
2525.59	79
2528.41	63
2531.23	69
2534.05	62
2536.86	65
2539.68	65
2542.491	65
2545.3	56
2548.12	90
2550.93	60
2553.74	68
2556.54	71
2559.35	64
2562.16	69
2564.96	51
2567.77	70
2570.57	74
2573.375	77
2576.177	73
2578.978	77
2581.78	74
2584.58	73
2587.375	69
2590.17	76
2592.97	83
2595.762	80
2598.56	72
2601.35	78
2604.14	80
2606.93	81
2609.72	104
2612.51	99
2615.3	98
2618.09	113
2620.87	102
2623.658	139
2626.44	142
2629.22	162
2632.01	181
2634.79	193
2637.57	225
2640.35	248
2643.13	265
2645.9	339
2648.68	380
2651.45	470
2654.23	536
2657	572
2659.77	644
2662.55	750
2665.32	766
2668.09	852
2670.85	849
2673.62	856
2676.39	840
2679.15	896
2681.92	768
2684.68	735
2687.45	642
2690.21	554
2692.968	456
2695.73	421
2698.49	340
2701.24	301
2704.001	259
2706.76	239
2709.51	192
2712.27	181
2715.02	159
2717.772	142
2720.52	145
2723.27	118
2726.02	118
2728.77	99
2731.52	110
2734.26	96
2737.01	72
2739.75	106
2742.5	84
2745.24	65
2747.98	66
2750.72	88
2753.46	69
2756.2	66
2758.939	66
2761.68	71
2764.41	64
2767.15	86
2769.88	76
2772.613	56
2775.345	65
2778.08	70
2780.81	60
2783.54	72
2786.26	58
2788.991	61
2791.72	65
2794.44	60
2797.17	57
2799.89	45
2802.61	66
2805.334	56
2808.05	58
2810.77	55
2813.49	58
2816.21	62
2818.93	62
2821.65	58
2824.36	56
2827.07	61
2829.79	53
2832.5	60
2835.21	69
2837.92	61
2840.63	54
2843.34	62
2846.05	62
2848.75	57
2851.46	52
2854.16	53
2856.87	53
2859.57	53
2862.272	56
2864.97	59
2867.67	58
2870.37	50
2873.07	57
2875.77	58
2878.46	65
2881.16	55
2883.85	50
2886.55	58
2889.24	57
2891.93	41
2894.62	52
2897.311	56
2900	62
2902.688	58
2905.37	61
2908.061	65
2910.75	54
2913.43	47
2916.11	51
2918.8	60
2921.48	53
2924.16	57
2926.84	55
2929.52	62
2932.19	54
2934.87	60
2937.55	53
2940.22	58
2942.89	49
2945.57	51
2948.24	52
2950.91	51
2953.58	49
2956.25	57
2958.92	58
2961.59	40
2964.25	50
2966.92	38
2969.59	51
2972.25	46
2974.91	52
2977.57	65
2980.24	56
2982.9	52
2985.55	45
2988.21	61
2990.87	50
2993.53	57
2996.18	50
2998.84	48
3001.49	43
3004.14	49
3006.8	48
3009.45	51
3012.1	54
3014.75	50
3017.396	52
3020.04	42
3022.69	48
3025.34	56
3027.98	57
3030.63	51
3033.27	46
3035.91	55
3038.55	51
3041.19	33
3043.83	45
3046.47	49
3049.11	58
3051.74	55
3054.38	53
3057.01	50
3059.65	60
3062.281	43
3064.91	48
3067.55	47
3070.17	45
3072.8	49
3075.43	58
3078.06	53
3080.69	50
3083.31	51
3085.94	57
3088.563	53
3091.19	43
3093.81	46
3096.43	52
3099.05	49
3101.67	43
3104.29	53
3106.91	52
3109.52	44
3112.14	56
3114.75	47
3117.37	46
3119.98	49
3122.59	58
3125.21	50
3127.82	60
3130.427	51
3133.04	50
3135.64	45
3138.251	54
3140.86	42
3143.46	44
3146.07	50
3148.67	47
3151.27	41
3153.874	46
3156.48	58
3159.08	42
3161.67	50
3164.27	44
3166.87	54
3169.47	51
3172.06	45
3174.66	51
3177.251	40
3179.85	39
3182.437	47
3185.03	52
3187.62	52
3190.21	63
3192.8	48
3195.38	45
3197.97	46
3200.56	42
3203.14	61
3205.73	45
3208.31	54
3210.89	52
3213.47	47
3216.054	47
3218.63	68
3221.21	50
3223.791	62
3226.37	67
3228.95	77
3231.52	79
3234.1	88
3236.67	89
3239.241	84
3241.81	85
3244.38	78
3246.96	87
3249.52	74
3252.09	69
3254.66	63
3257.23	58
3259.79	53
3262.36	60
3264.92	65
3267.49	56
3270.05	47
3272.61	33
3275.17	41
3277.73	49
3280.29	43
3282.85	54
3285.41	52
3287.96	46
3290.52	41
3293.07	47
3295.63	44
3298.18	38
3300.73	49
3303.28	32
3305.83	49
3308.38	39
3310.93	39
3313.479	38
3316.03	48
3318.57	36
3321.12	48
3323.66	47
3326.21	43
3328.75	39
3331.29	41
3333.83	39
3336.37	47
3338.91	44
3341.448	39
3343.99	40
3346.52	43
3349.06	39
3351.593	54
3354.13	41
3356.66	42
3359.19	42
3361.72	32
3364.25	52
3366.79	42
3369.31	40
3371.84	44
3374.37	44
3376.9	30
3379.42	37
3381.95	36
3384.47	42
3386.99	54
3389.52	33
3392.04	42
3394.56	46
3397.08	44
3399.6	48
3402.12	39
3404.63	44
3407.15	48
3409.66	39
3412.179	42
3414.69	41
3417.21	50
3419.72	33
3422.23	32
3424.74	53
3427.25	43
3429.76	46
3432.27	43
3434.77	46
3437.28	42
3439.79	42
3442.29	49
3444.79	31
3447.3	39
3449.8	44
3452.3	41
3454.8	46
3457.3	31
3459.8	30
3462.3	52
3464.79	32
3467.29	39
3469.79	43
3472.28	50
3474.77	40
3477.27	44
3479.76	43
3482.25	42
3484.741	42
3487.23	36
3489.72	39
3492.21	38
3494.69	45
3497.18	45
3499.666	43
3502.15	43
3504.63	49
3507.12	36
3509.6	39
3512.08	38
3514.56	39
3517.04	40
3519.521	47
3522	48
3524.48	44
3526.95	37
3529.43	45
3531.9	38
3534.38	34
3536.85	39
3539.32	37
3541.79	40
3544.26	39
3546.73	43
3549.2	45
3551.67	42
3554.14	36
3556.61	36
3559.07	36
3561.54	40
3564	40
3566.46	45
3568.93	38
3571.39	29
3573.85	35
3576.31	50
3578.77	32
3581.23	38
3583.68	55
3586.14	41
3588.6	37
3591.052	38
3593.51	42
3595.96	45
3598.41	40
3600.865	37
3603.32	42
3605.77	32
3608.22	34
3610.665	46
3613.11	42
3615.56	34
3618.01	25
3620.45	39
3622.896	41
3625.34	40
3627.78	37
3630.22	35
3632.67	45
3635.11	31
3637.55	41
3639.99	43
3642.42	29
3644.86	42
3647.3	36
3649.73	36
3652.17	37
3654.6	36
3657.04	38
3659.47	38
3661.9	33