File: data/SEM_Raman_Data/KZPd_170903-1/20170924_Gr on SiO2_2_spec.txt
672.793	2669.16
676.3017	2642.3
679.809	2049.832
683.316	1931.75
686.818	1424.01
690.322	1255.68
693.824	709.6958
697.325	475.057
700.825	386.752
704.321	202.731
707.8175	-229.932
711.313	-377.289
714.807	-450.346
718.3	-748.108
721.789	-626.621
725.279	-657.815
728.768	-739.732
732.255	-642.38
735.7392	-841.796
739.224	-564.913
742.707	-751.772
746.187	-914.408
749.668	-819.7572
753.147	-735.854
756.623	-508.735
760.1	-449.336
763.575	-422.688
767.047	-226.827
770.519	-163.687
773.9906	-130.301
777.4585	1.30097
780.927	-95.819
784.394	17.3103
787.858	1.6588
791.323	271.29
794.784	397.145
798.246	400.286
801.705	519.658
805.164	823.3197
808.6217	826.246
812.076	978.415
815.532	1169.88
818.984	1424.6
822.436	1038.62
825.885	1208.91
829.335	884.506
832.782	864.375
836.229	729.567
839.673	765.041
843.118	837.85
846.559	423.951
849.999	453.376
853.44	486.15
856.878	648.238
860.316	618.688
863.75	483.465
867.186	635.617
870.618	639.109
874.049	823.97
877.48	785.225
880.909	691.844
884.335	878.854
887.763	905.279
891.187	1177.09
894.612	1142.33
898.034	1204.98
901.454	1333.06
904.873	1352.57
908.293	1436.54
911.709	1749.95
915.124	1690.82
918.54	2210.176
921.953	2473.99
925.364	3290.3
928.774	4838.1
932.184	8013.418
935.592	12436.233
938.998	17412.57
942.402	22225.438
945.8078	23703.855
949.21	23378.807
952.611	22690.314
956.01	22393.387
959.409	22596.033
962.805	23045.26
966.203	23246.092
969.597	23153.512
972.99	23421.541
976.3822	23498.188
979.773	23694.461
983.162	23527.371
986.55	22346.926
989.936	19127.133
993.324	14831.013
996.708	10935.554
1000.09	8348.78
1003.47	6773.686
1006.852	5954.29
1010.23	5190.61
1013.61	4517.64
1016.98	3810.39
1020.36	3283.88
1023.73	2539.11
1027.11	2058.084
1030.48	1334.82
1033.85	972.323
1037.22	677.601
1040.58	317.662
1043.95	90.5165
1047.31	5.17122
1050.68	-299.366
1054.04	10.9148
1057.4	0.0200699
1060.76	-12.0482
1064.12	-140.269
1067.47	-80.6395
1070.83	49.8468
1074.18	-79.8022
1077.54	-12.5787
1080.89	-3.4743
1084.24	410.518
1087.59	218.3992
1090.937	283.19
1094.28	373.892
1097.63	653.511
1100.97	777.056
1104.32	751.532
1107.66	1004.94
1111	1241.3
1114.34	1240.62
1117.68	1305.9
1121.01	1474.13
1124.35	1526.35
1127.68	1402.548
1131.014	1572.73
1134.344	1806.9
1137.67	1797.08
1141.004	1846.26
1144.33	1812.45
1147.66	2007.66
1150.98	2102.9
1154.31	2002.16
1157.63	2053.46
1160.95	2295.81
1164.27	2344.19
1167.59	2521.64
1170.91	2450.14
1174.22	2526.697
1177.54	2689.33
1180.85	2719.03
1184.16	2839.82
1187.47	2836.69
1190.78	2594.64
1194.09	2899.69
1197.4	2873.84
1200.71	2935.09
1204.01	3348.44
1207.31	3390.916
1210.615	3429.5
1213.92	3590.2
1217.22	3428.03
1220.52	3798.99
1223.81	3611.074
1227.11	3961.3
1230.4	3899.66
1233.7	4022.17
1236.99	4402.82
1240.28	4534.62
1243.57	4865.58
1246.86	4798.69
1250.15	4973.97
1253.43	5352.4
1256.71	5699
1259.999	5722.77
1263.28	6195.71
1266.56	6478.83
1269.84	6384.11
1273.12	6807.58
1276.4	7110.23
1279.67	7228.07
1282.95	7958.08
1286.22	8345.29
1289.49	8725.69
1292.76	9031.28
1296.03	9429.06
1299.304	10102.041
1302.57	10756.213
1305.84	11389.583
1309.1	12139.154
1312.37	12866.937
1315.63	14319.911
1318.89	15598.09
1322.15	17549.473
1325.41	19639.063
1328.67	22747.869
1331.92	26592.873
1335.18	31513.086
1338.43	37487.508
1341.68	44440.141
1344.93	48571.984
1348.18	48909.035
1351.43	48750.313
1354.68	48788.789
1357.93	48955.477
1361.17	48038.375
1364.42	41729.488
1367.66	35598.813
1370.9	31002.348
1374.14	26528.094
1377.38	23669.053
1380.616	21507.223
1383.85	19976.602
1387.09	18330.191
1390.322	17545.992
1393.55	16748
1396.79	15820.217
1400.02	15355.642
1403.25	14971.272
1406.47	14740.109
1409.7	13864.151
1412.93	13868.396
1416.15	13536.844
1419.38	13346.493
1422.6	13273.344
1425.82	13343.393
1429.04	13158.639
1432.25	12743.067
1435.47	12881.705
1438.69	12741.536
1441.9	12726.559
1445.12	12648.771
1448.33	12930.171
1451.54	12580.743
1454.75	12762.515
1457.96	12831.47
1461.17	12595.605
1464.37	12833.92
1467.58	12844.396
1470.78	12996.062
1473.98	13513.9
1477.19	13448.909
1480.39	13558.069
1483.58	13688.413
1486.78	14218.92
1489.98	14068.588
1493.17	14464.398
1496.37	14624.382
1499.563	14678.519
1502.75	15083.79
1505.94	15375.227
1509.14	15251.811
1512.32	15827.521
1515.51	15914.387
1518.7	16096.393
1521.88	16429.516
1525.06	16210.787
1528.25	16687.172
1531.43	16338.701
1534.61	16825.354
1537.79	16599.109
1540.96	16804
1544.14	17028.988
1547.32	17030.104
1550.489	17214.313
1553.66	17522.643
1556.83	18148.059
1560	18508.592
1563.17	18740.201
1566.34	19561.924
1569.51	20606.715
1572.675	21494.613
1575.84	23034.574
1579	24947.635
1582.16	26486.752
1585.32	28820.943
1588.49	31174.221
1591.64	34406.547
1594.8	38800.957
1597.96	42798.406
1601.11	45936.91
1604.27	47053.484
1607.42	43385.094
1610.57	37556.746
1613.72	31903.459
1616.871	28172.191
1620.02	26971.959
1623.17	26591.777
1626.31	26048.607
1629.46	24828.459
1632.6	22169.352
1635.74	19193.244
1638.88	16090.148
1642.02	13246.063
1645.16	11497.005
1648.3	9834.93
1651.44	8931.86
1654.57	7839.78
1657.7	6901.69
1660.84	6286.61
1663.97	5425.5
1667.1	4907.37
1670.23	4472.22
1673.36	3963.05
1676.48	3499.84
1679.61	3214.62
1682.74	2791.35
1685.86	2500.03
1688.98	2238.68
1692.1	1884.28
1695.22	1455.82
1698.34	1344.32
1701.46	1172.75
1704.58	1047.127
1707.69	1024.44
1710.81	761.682
1713.92	751.854
1717.03	495.952
1720.14	382.972
1723.25	483.91
1726.36	525.764
1729.47	301.529
1732.58	299.201
1735.68	355.78
1738.78	267.2594
1741.89	333.637
1744.99	117.909
1748.09	32.0731
1751.19	127.125
1754.29	169.062
1757.39	178.879
1760.48	109.559
1763.58	240.132
1766.67	296.576
1769.76	267.888
1772.85	330.066
1775.94	235.106
1779.03	269.99
1782.12	274.747
1785.21	283.356
1788.29	291.816
1791.379	255.122
1794.46	351.257
1797.54	264.249
1800.63	121.08
1803.7	180.73
1806.78	281.228
1809.86	130.555
1812.94	254.71
1816.01	298.673
1819.09	404.472
1822.16	170.09
1825.23	286.508
1828.31	420.755
1831.38	325.812
1834.44	271.661
1837.51	339.331
1840.58	261.789
1843.64	155.061
1846.71	298.131
1849.77	124.981
1852.83	443.6395
1855.89	286.072
1858.95	325.308
1862.01	316.316
1865.07	283.12
1868.125	314.691
1871.18	335.055
1874.23	351.183
1877.29	304.098
1880.34	304.771
1883.39	401.229
1886.44	301.441
1889.49	357.433
1892.54	426.175
1895.58	242.693
1898.63	277.958
1901.67	337.982
1904.72	393.774
1907.76	419.31
1910.8	561.61
1913.84	531.651
1916.88	384.441
1919.91	678.989
1922.95	382.274
1925.98	525.303
1929.02	401.0863
1932.052	630.6001
1935.08	699.8551
1938.11	638.849
1941.14	584.591
1944.17	684.059
1947.2	519.262
1950.23	650.199
1953.25	545.878
1956.28	604.279
1959.3	685.41
1962.32	677.27
1965.34	760.8587
1968.36	735.183
1971.38	928.225
1974.4	861.993
1977.41	735.484
1980.43	816.699
1983.44	804.6369
1986.46	849.297
1989.469	771.686
1992.48	808.787
1995.49	882.609
1998.498	848.15
2001.51	785.409
2004.512	722.387
2007.52	810.083
2010.52	773.496
2013.52	843.6264
2016.527	767.473
2019.53	747.037
2022.528	751.315
2025.527	647.311
2028.52	909.021
2031.52	875.447
2034.52	777.589
2037.51	674.446
2040.51	665.018
2043.5	783.305
2046.49	693.308
2049.478	729.022
2052.47	730.456
2055.46	659.6062
2058.44	683.472
2061.43	773.054
2064.41	811.353
2067.4	648.368
2070.38	663.098
2073.36	698.549
2076.34	715.718
2079.32	641.605
2082.3	870.212
2085.28	790.5365
2088.25	688.583
2091.23	770.352
2094.2	792.84
2097.17	629.052
2100.146	850.988
2103.12	819.648
2106.09	746.032
2109.05	791.142
2112.02	631.98
2114.99	749.544
2117.95	664.8385
2120.92	722.862
2123.88	772.617
2126.844	704.103
2129.804	691.323
2132.76	788.277
2135.72	734.967
2138.68	710.3938
2141.64	612.558
2144.59	612.463
2147.55	733.108
2150.5	594.496
2153.46	606.6264
2156.41	560.503
2159.36	517.126
2162.31	386.498
2165.25	423.6181
2168.2	421.491
2171.15	465.116
2174.09	443.497
2177.04	472.632
2179.98	361.528
2182.92	474.1817
2185.86	396.599
2188.8	331.781
2191.74	251.724
2194.68	250.439
2197.61	509.922
2200.551	333.174
2203.48	435.202
2206.418	389.005
2209.35	383.582
2212.28	575.942
2215.21	411.084
2218.14	489.005
2221.07	607.7157
2224	616.214
2226.92	841.504
2229.85	585.581
2232.77	607.4574
2235.69	686.131
2238.62	631.604
2241.54	717.878
2244.46	774.9519
2247.38	786.837
2250.29	608.531
2253.21	590.036
2256.13	701.356
2259.04	566.491
2261.95	674.44
2264.87	672.215
2267.78	520.815
2270.69	657.242
2273.6	646.497
2276.51	504.585
2279.41	537.507
2282.32	454.266
2285.22	441.865
2288.13	250.307
2291.031	292.593
2293.93	273.7291
2296.834	284.715
2299.73	188.5544
2302.63	208.2506
2305.53	54.8059
2308.43	-40.7767
2311.32	91.5054
2314.22	45.6564
2317.11	65.678
2320.01	118.573
2322.9	-124.648
2325.79	6.00385
2328.676	-90.4626
2331.56	-100.044
2334.45	-141.735
2337.34	-241.535
2340.23	-179.441
2343.11	-48.44136
2345.99	-230.549
2348.87	-222.754
2351.76	-138.05
2354.64	-230.43
2357.52	-259.904
2360.39	-368.462
2363.27	-239.102
2366.15	-241.81
2369.02	-268.602
2371.9	-128.464
2374.77	-153.388
2377.64	-193.384
2380.51	-169.444
2383.38	-135.552
2386.25	-47.72562
2389.12	-195.952
2391.99	-110.218
2394.853	-3.53992
2397.72	23.0964
2400.58	12.7008
2403.45	-109.7395
2406.31	121.795
2409.17	-82.7094
2412.03	-70.2312
2414.89	-34.7862
2417.74	45.6461
2420.6	93.0544
2423.46	3.45643
2426.31	64.8382
2429.16	196.221
2432.02	56.5909
2434.87	255.97
2437.72	215.34
2440.57	332.725
2443.42	357.109
2446.27	484.514
2449.11	608.935
2451.96	570.3634
2454.8	805.821
2457.65	865.296
2460.49	1141.807
2463.33	1232.349
2466.17	1200.92
2469.01	997.528
2471.85	1007.18
2474.69	847.878
2477.53	1016.61
2480.36	623.406
2483.19	732.2514
2486.03	544.153
2488.86	483.106
2491.69	469.129
2494.52	257.217
2497.35	268.373
2500.18	168.594
2503.01	321.897
2505.84	95.2782
2508.66	211.739
2511.49	-98.7161
2514.31	119.917
2517.13	76.6379
2519.95	119.445
2522.78	54.3544
2525.59	32.3641
2528.41	27.4744
2531.23	160.69
2534.05	144.013
2536.86	193.447
2539.68	263.993
2542.491	258.656
2545.3	108.439
2548.12	328.343
2550.93	388.372
2553.74	436.529
2556.54	322.815
2559.35	298.236
2562.16	351.792
2564.96	308.487
2567.77	571.323
2570.57	429.303
2573.375	415.437
2576.177	535.713
2578.978	595.142
2581.78	502.7262
2584.58	733.4668
2587.375	585.367
2590.17	749.429
2592.97	706.664
2595.762	859.059
2598.56	1039.62
2601.35	1046.36
2604.14	1052.28
2606.93	1402.37
2609.72	1318.639
2612.51	1330.09
2615.3	1553.73
2618.09	1816.55
2620.87	1859.564
2623.658	2021.766
2626.44	2333.17
2629.22	2511.76
2632.01	2794.551
2634.79	3454.54
2637.57	3450.73
2640.35	4149.13
2643.13	4561.731
2645.9	5072.54
2648.68	5662.56
2651.45	6694.8
2654.23	7717.25
2657	8618.91
2659.77	9633.791
2662.55	10921.891
2665.32	12754.216
2668.09	14548.76
2670.85	16041.533
2673.62	18377.531
2676.39	20035.758
2679.15	22539.215
2681.92	25395.906
2684.68	27022.826
2687.45	29236.986
2690.21	31381.381
2692.968	32586.012
2695.73	33392.887
2698.49	33494.996
2701.24	32501.354
2704.001	31138.953
2706.76	28881.797
2709.51	26795.889
2712.27	23786.229
2715.02	21144.816
2717.772	18826.652
2720.52	16501.742
2723.27	14376.083
2726.02	12526.678
2728.77	11033.527
2731.52	9356.63
2734.26	8192.99
2737.01	7177.61
2739.75	6233.49
2742.5	5427.63
2745.24	4723.02
2747.98	4368.68
2750.72	3960.6
2753.46	3374.783
2756.2	2963.23
2758.939	2544.94
2761.68	2028.91
2764.41	2037.15
2767.15	1792.65
2769.88	1807.42
2772.613	1465.46
2775.345	1289.76
2778.08	1180.33
2780.81	1063.17
2783.54	975.271
2786.26	861.644
2788.991	973.286
2791.72	697.196
2794.44	593.375
2797.17	607.823
2799.89	703.54
2802.61	509.525
2805.334	553.776
2808.05	466.3
2810.77	558.093
2813.49	423.154
2816.21	580.483
2818.93	402.082
2821.65	377.948
2824.36	505.077
2827.07	402.479
2829.79	536.148
2832.5	625.084
2835.21	470.286
2837.92	444.748
2840.63	534.481
2843.34	403.479
2846.05	610.742
2848.75	599.261
2851.46	582.0498
2854.16	600.102
2856.87	649.4068
2859.57	537.98
2862.272	637.813
2864.97	647.898
2867.67	550.248
2870.37	707.847
2873.07	810.711
2875.77	806.829
2878.46	778.193
2881.16	734.8186
2883.85	707.6875
2886.55	643.816
2889.24	994.1839
2891.93	726.809
2894.62	842.672
2897.311	1054.79
2900	1019.14
2902.688	1047.75
2905.37	1172.58
2908.061	1118.67
2910.75	1088.98
2913.43	1465.54
2916.11	1398.33
2918.8	1416.35
2921.48	1528.61
2924.16	1700.09
2926.84	1936.81
2929.52	1890.74
2932.19	2072.9
2934.87	2160.28
2937.55	2135.9
2940.22	2179.72
2942.89	2156.76
2945.57	2339.03
2948.24	2108.49
2950.91	2128.17
2953.58	2290.06
2956.25	2195.16
2958.92	2147.46
2961.59	2126.96
2964.25	2070.66
2966.92	1916.55
2969.59	1837.66
2972.25	1824.95
2974.91	1474.423
2977.57	1336.09
2980.24	1315.94
2982.9	1027.97
2985.55	1062.19
2988.21	897.582
2990.87	966.152
2993.53	892.894
2996.18	805.807
2998.84	529.888
3001.49	646.134
3004.14	537.543
3006.8	616.112
3009.45	522.836
3012.1	411.717
3014.75	520.7478
3017.396	342.926
3020.04	312.252
3022.69	415.72
3025.34	273.329
3027.98	242.072
3030.63	468.952
3033.27	206.96
3035.91	108.083
3038.55	239.344
3041.19	163.728
3043.83	223.23
3046.47	161.849
3049.11	144.562
3051.74	218.4003
3054.38	207.346
3057.01	266.394
3059.65	207.524
3062.281	175.768
3064.91	308.104
3067.55	20.5302
3070.17	157.024
3072.8	199.621
3075.43	300.293
3078.06	210.028
3080.69	146.852
3083.31	150.729
3085.94	159.687
3088.563	113.709
3091.19	144.773
3093.81	90.9068
3096.43	46.0789
3099.05	241.317
3101.67	21.5804
3104.29	255.903
3106.91	131.265
3109.52	112.645
3112.14	173.054
3114.75	189.5081
3117.37	92.9717
3119.98	34.4676
3122.59	102.9657
3125.21	35.4943
3127.82	193.015
3130.427	154.557
3133.04	57.086
3135.64	11.6153
3138.251	-17.8483
3140.86	106.665
3143.46	10.1673
3146.07	140.669
3148.67	97.1357
3151.27	-48.4216
3153.874	153.993
3156.48	127.395
3159.08	0.744924
3161.67	74.0589
3164.27	60.3303
3166.87	78.574
3169.47	110.752
3172.06	48.87896
3174.66	141.949
3177.251	139.961
3179.85	188.924
3182.437	141.804
3185.03	286.615
3187.62	293.353
3190.21	224.013
3192.8	215.59
3195.38	171.085
3197.97	143.49
3200.56	181.805
3203.14	284.026
3205.73	306.147
3208.31	269.165
3210.89	323.079
3213.47	368.883
3216.054	286.576
3218.63	514.152
3221.21	459.61
3223.791	548.944
3226.37	511.1535
3228.95	493.2352
3231.52	837.181
3234.1	924.9942
3236.67	1005.67
3239.241	1141.18
3241.81	1312.57
3244.38	1691.8
3246.96	1904.89
3249.52	1985.82
3252.09	2231.594
3254.66	2235.19
3257.23	2160.64
3259.79	2014.92
3262.36	1923.03
3264.92	1644.96
3267.49	1333.718
3270.05	1227.3
3272.61	814.691
3275.17	822.908
3277.73	653.942
3280.29	541.769
3282.85	427.421
3285.41	428.876
3287.96	307.12
3290.52	232.179
3293.07	171.023
3295.63	249.674
3298.18	201.119
3300.73	98.3416
3303.28	193.365
3305.83	121.162
3308.38	198.756
3310.93	90.1182
3313.479	78.2732
3316.03	175.195
3318.57	128.904
3321.12	-11.62465
3323.66	23.6184
3326.21	-8.35642
3328.75	61.4255
3331.29	-18.01399
3333.83	23.302
3336.37	-53.619
3338.91	46.2336
3341.448	-8.16406
3343.99	-52.8012
3346.52	63.3308
3349.06	-36.79071
3351.593	64.8447
3354.13	13.2438
3356.66	133.388
3359.19	-90.7148
3361.72	-9.06476
3364.25	-19.6623
3366.79	62.4992
3369.31	69.40287
3371.84	95.0572
3374.37	148.46
3376.9	148.613
3379.42	92.51413
3381.95	175.172
3384.47	171.5706
3386.99	157.719
3389.52	282.615
3392.04	307.261
3394.56	53.656
3397.08	263.8
3399.6	231.695
3402.12	284.341
3404.63	193.737
3407.15	296.885
3409.66	290.787
3412.179	215.442
3414.69	441.853
3417.21	361.019
3419.72	326.943
3422.23	389.625
3424.74	304.068
3427.25	393.272
3429.76	394.235
3432.27	385.968
3434.77	395.468
3437.28	424.738
3439.79	425.778
3442.29	465.593
3444.79	428.179
3447.3	260.548
3449.8	368.698
3452.3	304.632
3454.8	272.348
3457.3	202.858
3459.8	422.1615
3462.3	429.257
3464.79	287.155
3467.29	318.857
3469.79	189.365
3472.28	283.68
3474.77	209.813
3477.27	237.761
3479.76	122.534
3482.25	230.134
3484.741	222.563
3487.23	225.8307
3489.72	153.936
3492.21	150.889
3494.69	109.691
3497.18	68.3507
3499.666	117.87
3502.15	117.257
3504.63	243.514
3507.12	104.652
3509.6	138.672
3512.08	185.583
3514.56	217.389
3517.04	274.098
3519.521	131.718
3522	144.252
3524.48	188.711
3526.95	94.0989
3529.43	117.424
3531.9	146.695
3534.38	152.918
3536.85	181.1
3539.32	280.251
3541.79	236.379
3544.26	306.49
3546.73	202.594
3549.2	148.7
3551.67	190.818
3554.14	223.954
3556.61	231.119
3559.07	218.322
3561.54	224.5723
3564	182.88
3566.46	225.257
3568.93	233.7103
3571.39	213.2515
3573.85	217.891
3576.31	231.64
3578.77	226.509
3581.23	219.509
3583.68	244.652
3586.14	228.95
3588.6	271.414
3591.052	160.055
3593.51	221.887
3595.96	203.922
3598.41	160.172
3600.865	191.65
3603.32	120.369
3605.77	217.343
3608.22	62.5842
3610.665	167.108
3613.11	132.924
3615.56	94.0526
3618.01	58.505
3620.45	185.297
3622.896	138.442
3625.34	-19.0433
3627.78	-3.14866
3630.22	49.1489
3632.67	25.863
3635.11	24.008
3637.55	53.5953
3639.99	-23.3472
3642.42	24.1918
3644.86	-27.7785
3647.3	19.7746
3649.73	80.8598
3652.17	-3.51147
3654.6	61.6925
3657.04	181.484
3659.47	126.874
3661.9	147.8963