File: data/SEM_Raman_Data/KZPd_170928-3/KZPd_170928-2_Raman1.txt
672.793	598.891
676.3017	549.971
679.809	523.701
683.316	272.083
686.818	397.105
690.322	371.796
693.824	278.144
697.325	238.149
700.825	208.814
704.321	136.126
707.8175	176.115
711.313	58.7681
714.807	26.0872
718.3	93.0744
721.789	43.719
725.279	-6.952086
728.768	34.0505
732.255	53.7284
735.7392	16.0726
739.224	73.1083
742.707	38.8255
746.187	1.21583
749.668	83.3032
753.147	72.0792
756.623	156.535
760.1	113.694
763.575	168.549
767.047	160.09
770.519	260.342
773.9906	269.296
777.4585	292.944
780.927	341.31
784.394	262.384
787.858	352.162
791.323	312.663
794.784	425.872
798.246	396.81
801.705	478.461
805.164	460.845
808.6217	440.956
812.076	597.789
815.532	547.3623
818.984	704.663
822.436	638.709
825.885	512.4884
829.335	563.018
832.782	631.286
836.229	497.31
839.673	575.077
843.118	617.606
846.559	470.884
849.999	615.922
853.44	537.728
856.878	584.293
860.316	576.631
863.75	515.734
867.186	571.615
870.618	657.266
874.049	576.696
877.48	576.913
880.909	592.908
884.335	600.69
887.763	668.266
891.187	666.63
894.612	702.794
898.034	733.75
901.454	686.508
904.873	652.068
908.293	735.4389
911.709	752.614
915.124	716.601
918.54	938.405
921.953	945.023
925.364	1115.46
928.774	1269.72
932.184	1814.81
935.592	2640.72
938.998	3542.46
942.402	4532.04
945.8078	5121.45
949.21	4925.7
952.611	4992.79
956.01	4890.73
959.409	4816.51
962.805	4929.13
966.203	4873.62
969.597	4958.95
972.99	5093.14
976.3822	4963.19
979.773	4975.1
983.162	4966.88
986.55	4778.52
989.936	4393.03
993.324	3578.42
996.708	2712.67
1000.09	2109.81
1003.47	1707.82
1006.852	1453.72
1010.23	1326.49
1013.61	1233.158
1016.98	1038.71
1020.36	985.155
1023.73	831.492
1027.11	697.725
1030.48	578.857
1033.85	456.888
1037.22	397.822
1040.58	331.66
1043.95	268.406
1047.31	182.061
1050.68	184.628
1054.04	166.108
1057.4	113.505
1060.76	229.8181
1064.12	149.052
1067.47	104.209
1070.83	156.29
1074.18	109.298
1077.54	110.234
1080.89	73.1
1084.24	128.899
1087.59	57.6321
1090.937	150.302
1094.28	61.9107
1097.63	138.46
1100.97	117.951
1104.32	103.386
1107.66	93.7678
1111	91.0974
1114.34	97.3768
1117.68	130.608
1121.01	54.7922
1124.35	127.932
1127.68	57.0284
1131.014	80.0836
1134.344	71.0993
1137.67	63.077
1141.004	167.019
1144.33	32.9255
1147.66	74.7994
1150.98	43.6421
1154.31	69.455
1157.63	73.2397
1160.95	32.9977
1164.27	35.7308
1167.59	32.4402
1170.91	68.1274
1174.22	62.7941
1177.54	53.4415
1180.85	-5.92877
1184.16	60.6844
1187.47	11.2826
1190.78	-28.1326
1194.09	57.4397
1197.4	-19.9988
1200.71	8.55284
1204.01	18.0963
1207.31	-2.36757
1210.615	-21.8371
1213.92	22.6884
1217.22	25.2108
1220.52	12.7305
1223.81	-39.7506
1227.11	70.7681
1230.4	22.28805
1233.7	-5.18998
1236.99	1.33554
1240.28	29.8654
1243.57	-40.5996
1246.86	-5.05793
1250.15	31.4909
1253.43	6.04836
1256.71	35.6152
1259.999	106.192
1263.28	59.7803
1266.56	48.3805
1269.84	86.9939
1273.12	72.6212
1276.4	143.263
1279.67	213.921
1282.95	153.594
1286.22	142.285
1289.49	87.9941
1292.76	208.722
1296.03	238.469
1299.304	272.236
1302.57	250.023
1305.84	370.833
1309.1	441.664
1312.37	403.519
1315.63	539.3963
1318.89	534.298
1322.15	691.224
1325.41	888.176
1328.67	1121.15
1331.92	1342.16
1335.18	1527.19
1338.43	1655.25
1341.68	1802.33
1344.93	2178.45
1348.18	2184.59
1351.43	2324.76
1354.68	2241.96
1357.93	2291.19
1361.17	2072.46
1364.42	1930.749
1367.66	1770.07
1370.9	1623.429
1374.14	1457.82
1377.38	1323.24
1380.616	1148.689
1383.85	1018.17
1387.09	1021.69
1390.322	781.244
1393.55	729.829
1396.79	556.448
1400.02	592.1012
1403.25	482.788
1406.47	468.51
1409.7	338.267
1412.93	320.058
1416.15	317.884
1419.38	279.745
1422.6	237.641
1425.82	238.572
1429.04	206.539
1432.25	217.541
1435.47	182.579
1438.69	125.653
1441.9	229.762
1445.12	285.907
1448.33	215.088
1451.54	152.303
1454.75	216.556
1457.96	265.843
1461.17	179.167
1464.37	223.526
1467.58	227.92
1470.78	323.351
1473.98	236.817
1477.19	294.318
1480.39	363.8544
1483.58	296.426
1486.78	418.034
1489.98	446.676
1493.17	506.352
1496.37	537.064
1499.563	615.811
1502.75	567.591
1505.94	716.407
1509.14	726.256
1512.32	732.139
1515.51	760.056
1518.7	817.007
1521.88	957.9903
1525.06	1081.01
1528.25	1095.06
1531.43	1317.14
1534.61	1523.256
1537.79	1816.4
1540.96	2124.58
1544.14	2521.79
1547.32	2827.04
1550.489	3640.31
1553.66	4501.61
1556.83	5760.95
1560	7468.31
1563.17	9680.709
1566.34	12056.135
1569.51	15240.588
1572.675	18308.072
1575.84	21988.584
1579	25231.125
1582.16	27644.693
1585.32	28755.289
1588.49	28887.912
1591.64	27515.563
1594.8	25195.24
1597.96	21882.943
1601.11	18305.672
1604.27	14915.429
1607.42	11866.208
1610.57	9308.01
1613.72	7355.84
1616.871	5849.69
1620.02	4693.57
1623.17	3950.47
1626.31	3193.39
1629.46	2810.34
1632.6	2385.31
1635.74	2084.29
1638.88	1792.3
1642.02	1454.33
1645.16	1310.38
1648.3	1163.45
1651.44	911.544
1654.57	777.652
1657.7	783.779
1660.84	628.925
1663.97	482.0881
1667.1	432.268
1670.23	378.464
1673.36	331.677
1676.48	292.906
1679.61	282.152
1682.74	213.411
1685.86	207.685
1688.98	175.973
1692.1	88.2742
1695.22	108.589
1698.34	115.916
1701.46	95.2553
1704.58	142.606
1707.69	32.9689
1710.81	56.3423
1713.92	45.7259
1717.03	-3.88051
1720.14	26.5226
1723.25	25.9345
1726.36	22.3551
1729.47	71.7837
1732.58	68.2198
1735.68	48.6631
1738.78	66.113
1741.89	11.5691
1744.99	133.031
1748.09	63.498
1751.19	91.96981
1754.29	121.446
1757.39	100.926
1760.48	134.407
1763.58	62.8939
1766.67	86.3828
1769.76	100.874
1772.85	147.366
1775.94	43.8596
1779.03	45.3518
1782.12	22.8463
1785.21	45.3405
1788.29	8.83401
1791.379	64.3263
1794.46	27.815
1797.54	79.3037
1800.63	20.7899
1803.7	31.27133
1806.78	47.7513
1809.86	-3.77262
1812.94	44.6994
1816.01	-10.8354
1819.09	6.62678
1822.16	-12.9166
1825.23	-6.46796
1828.31	31.9764
1831.38	60.4139
1834.44	-16.1577
1837.51	45.2651
1840.58	26.6778
1843.64	-2.91604
1846.71	56.4815
1849.77	97.8675
1852.83	16.2462
1855.89	17.6126
1858.95	78.9706
1862.01	25.316
1865.07	91.65197
1868.125	106.974
1871.18	111.287
1874.23	99.5851
1877.29	74.8725
1880.34	21.1448
1883.39	51.4056
1886.44	37.6507
1889.49	-18.1165
1892.54	25.0999
1895.58	70.3033
1898.63	7.48959
1901.67	30.6604
1904.72	65.817
1907.76	63.9557
1910.8	57.0795
1913.84	28.1847
1916.88	61.2727
1919.91	66.3447
1922.95	35.3973
1925.98	85.4318
1929.02	110.449
1932.052	42.4465
1935.08	36.4246
1938.11	75.3834
1941.14	108.3243
1944.17	105.243
1947.2	99.1424
1950.23	67.0209
1953.25	183.88
1956.28	125.717
1959.3	103.532
1962.32	60.3263
1965.34	88.09848
1968.36	177.85
1971.38	115.578
1974.4	143.283
1977.41	144.966
1980.43	182.625
1983.44	181.2618
1986.46	161.875
1989.469	187.466
1992.48	233.031
1995.49	204.572
1998.498	206.09
2001.51	257.582
2004.512	255.051
2007.52	136.4938
2010.52	155.912
2013.52	198.305
2016.527	226.673
2019.53	231.015
2022.528	106.332
2025.527	216.623
2028.52	132.887
2031.52	158.126
2034.52	176.338
2037.51	130.524
2040.51	155.684
2043.5	201.817
2046.49	118.923
2049.478	172.001
2052.47	153.053
2055.46	134.078
2058.44	102.0758
2061.43	120.046
2064.41	69.9895
2067.4	76.9051
2070.38	143.792
2073.36	95.65258
2076.34	117.485
2079.32	128.29
2082.3	85.06723
2085.28	106.816
2088.25	75.5367
2091.23	89.23
2094.2	68.8942
2097.17	137.531
2100.146	57.1404
2103.12	112.721
2106.09	126.273
2109.05	88.7978
2112.02	35.2941
2114.99	125.761
2117.95	109.201
2120.92	89.6133
2123.88	127.996
2126.844	113.351
2129.804	61.6779
2132.76	111.977
2135.72	113.248
2138.68	76.49028
2141.64	77.7051
2144.59	86.8913
2147.55	86.0503
2150.5	58.1806
2153.46	98.2837
2156.41	14.35831
2159.36	104.406
2162.31	161.425
2165.25	91.4174
2168.2	31.3816
2171.15	49.3189
2174.09	75.2282
2177.04	47.1109
2179.98	28.9658
2182.92	29.7941
2185.86	72.595
2188.8	64.369
2191.74	-2.88326
2194.68	75.8373
2197.61	48.5315
2200.551	86.1995
2203.48	90.8409
2206.418	41.4563
2209.35	63.04583
2212.28	96.6092
2215.21	111.147
2218.14	124.659
2221.07	150.146
2224	58.6074
2226.92	123.044
2229.85	95.4552
2232.77	110.842
2235.69	132.2036
2238.62	158.541
2241.54	100.854
2244.46	80.1435
2247.38	82.4087
2250.29	171.65
2253.21	109.868
2256.13	62.0627
2259.04	117.234
2261.95	114.383
2264.87	108.509
2267.78	68.612
2270.69	184.693
2273.6	137.752
2276.51	171.789
2279.41	114.804
2282.32	76.7982
2285.22	65.7709
2288.13	136.7227
2291.031	88.6537
2293.93	106.564
2296.834	124.454
2299.73	62.3247
2302.63	87.17514
2305.53	91.006
2308.43	122.818
2311.32	102.61
2314.22	127.384
2317.11	64.1393
2320.01	127.876
2322.9	66.5956
2325.79	7.29687
2328.676	80.9807
2331.56	53.6473
2334.45	72.2971
2337.34	60.9301
2340.23	97.5468
2343.11	74.1477
2345.99	126.732
2348.87	53.3017
2351.76	158.856
2354.64	50.395
2357.52	115.9194
2360.39	80.4294
2363.27	106.925
2366.15	114.408
2369.02	137.876
2371.9	108.332
2374.77	135.775
2377.64	149.205
2380.51	195.622
2383.38	158.028
2386.25	167.422
2389.12	209.804
2391.99	260.176
2394.853	206.537
2397.72	194.887
2400.58	325.2276
2403.45	253.558
2406.31	341.879
2409.17	342.19
2412.03	290.493
2414.89	446.787
2417.74	479.074
2420.6	479.351
2423.46	580.622
2426.31	599.885
2429.16	627.141
2432.02	818.39
2434.87	779.634
2437.72	882.871
2440.57	956.102
2443.42	1039.33
2446.27	986.549
2449.11	1064.77
2451.96	1035.98
2454.8	1182.18
2457.65	1084.39
2460.49	1076.59
2463.33	1134.787
2466.17	1083.98
2469.01	1127.17
2471.85	1011.36
2474.69	949.552
2477.53	1004.74
2480.36	958.924
2483.19	860.109
2486.03	933.294
2488.86	813.477
2491.69	769.661
2494.52	769.846
2497.35	798.031
2500.18	641.217
2503.01	679.405
2505.84	561.595
2508.66	643.7865
2511.49	555.98
2514.31	440.177
2517.13	523.377
2519.95	515.579
2522.78	512.7854
2525.59	540.996
2528.41	518.21
2531.23	483.43
2534.05	442.653
2536.86	500.883
2539.68	547.117
2542.491	510.357
2545.3	524.604
2548.12	572.857
2550.93	510.116
2553.74	610.382
2556.54	566.656
2559.35	604.937
2562.16	620.226
2564.96	648.524
2567.77	724.829
2570.57	658.143
2573.375	653.467
2576.177	704.8
2578.978	828.142
2581.78	840.494
2584.58	905.857
2587.375	906.229
2590.17	1011.61
2592.97	1027.01
2595.762	1102.41
2598.56	1219.83
2601.35	1253.26
2604.14	1435.7
2606.93	1524.15
2609.72	1620.62
2612.51	1793.1
2615.3	1961.59
2618.09	2064.09
2620.87	2236.61
2623.658	2397.145
2626.44	2625.69
2629.22	2932.25
2632.01	3073.83
2634.79	3334.418
2637.57	3752.02
2640.35	4059.64
2643.13	4466.28
2645.9	4884.93
2648.68	5070.6
2651.45	5819.28
2654.23	6315.98
2657	6939.7
2659.77	7419.43
2662.55	8120.18
2665.32	8684.95
2668.09	9691.73
2670.85	10165.537
2673.62	10930.357
2676.39	11278.196
2679.15	11960.053
2681.92	12803.927
2684.68	12937.82
2687.45	13524.732
2690.21	13817.663
2692.968	14027.613
2695.73	14180.582
2698.49	14366.571
2701.24	14181.579
2704.001	14205.607
2706.76	14049.654
2709.51	13919.723
2712.27	13892.811
2715.02	13507.918
2717.772	13073.047
2720.52	12889.196
2723.27	12360.366
2726.02	11873.557
2728.77	11550.769
2731.52	11140.001
2734.26	10251.255
2737.01	9820.53
2739.75	9370.83
2742.5	8699.15
2745.24	8001.48
2747.98	7345.85
2750.72	6787.23
2753.46	6140.63
2756.2	5584.062
2758.939	4934.51
2761.68	4491.98
2764.41	4048.48
2767.15	3582.99
2769.88	3170.53
2772.613	2850.09
2775.345	2577.67
2778.08	2232.28
2780.81	1996.91
2783.54	1773.56
2786.26	1605.23
2788.991	1432.93
2791.72	1265.65
2794.44	1169.39
2797.17	1086.16
2799.89	1006.94
2802.61	822.753
2805.334	855.586
2808.05	770.442
2810.77	725.3205
2813.49	648.222
2816.21	580.147
2818.93	618.094
2821.65	514.064
2824.36	526.057
2827.07	514.073
2829.79	471.111
2832.5	521.173
2835.21	435.257
2837.92	420.363
2840.63	422.492
2843.34	363.644
2846.05	318.818
2848.75	365.015
2851.46	361.234
2854.16	292.476
2856.87	312.739
2859.57	275.0249
2862.272	327.333
2864.97	259.663
2867.67	265.015
2870.37	334.388
2873.07	267.784
2875.77	271.202
2878.46	203.64
2881.16	242.1012
2883.85	200.582
2886.55	221.086
2889.24	239.609
2891.93	186.155
2894.62	256.72
2897.311	210.308
2900	233.915
2902.688	203.5428
2905.37	207.19
2908.061	220.859
2910.75	171.5472
2913.43	184.256
2916.11	158.983
2918.8	222.731
2921.48	209.498
2924.16	127.284
2926.84	235.09
2929.52	206.913
2932.19	221.7556
2934.87	195.616
2937.55	234.497
2940.22	142.394
2942.89	171.309
2945.57	223.243
2948.24	178.1937
2950.91	227.161
2953.58	144.1465
2956.25	153.149
2958.92	202.168
2961.59	175.203
2964.25	195.254
2966.92	168.321
2969.59	174.405
2972.25	193.504
2974.91	98.6172
2977.57	142.746
2980.24	103.8895
2982.9	123.048
2985.55	136.22
2988.21	124.406
2990.87	118.607
2993.53	124.82
2996.18	87.0474
2998.84	121.287
3001.49	115.54
3004.14	84.8051
3006.8	56.0824
3009.45	185.371
3012.1	70.6722
3014.75	24.9842
3017.396	51.30719
3020.04	89.641
3022.69	92.9852
3025.34	101.34
3027.98	87.7037
3030.63	88.0776
3033.27	73.4604
3035.91	116.851
3038.55	88.2514
3041.19	84.6603
3043.83	72.0771
3046.47	52.5017
3049.11	63.93195
3051.74	101.371
3054.38	40.8164
3057.01	49.2684
3059.65	46.725
3062.281	125.1888
3064.91	77.6579
3067.55	61.1323
3070.17	35.6097
3072.8	47.0932
3075.43	88.5805
3078.06	49.0703
3080.69	36.565
3083.31	93.0613
3085.94	80.5615
3088.563	48.0643
3091.19	2.56761
3093.81	93.0739
3096.43	35.5802
3099.05	62.0891
3101.67	101.597
3104.29	35.1064
3106.91	102.6161
3109.52	2.12384
3112.14	93.6307
3114.75	76.138
3117.37	88.6425
3119.98	63.1463
3122.59	93.6467
3125.21	87.146
3127.82	118.641
3130.427	64.1339
3133.04	103.622
3135.64	161.106
3138.251	70.5875
3140.86	70.0627
3143.46	40.533
3146.07	58.9992
3148.67	107.458
3151.27	72.9116
3153.874	83.3582
3156.48	133.799
3159.08	85.2322
3161.67	149.658
3164.27	122.0751
3166.87	152.486
3169.47	75.88678
3172.06	128.279
3174.66	156.662
3177.251	186.035
3179.85	145.4
3182.437	185.753
3185.03	173.096
3187.62	163.428
3190.21	225.749
3192.8	232.058
3195.38	220.355
3197.97	224.64
3200.56	228.913
3203.14	281.173
3205.73	264.42
3208.31	331.653
3210.89	355.872
3213.47	460.077
3216.054	463.268
3218.63	456.445
3221.21	577.606
3223.791	650.752
3226.37	675.882
3228.95	710.997
3231.52	840.095
3234.1	799.177
3236.67	863.242
3239.241	1022.29
3241.81	979.32
3244.38	1012.33
3246.96	1046.33
3249.52	958.307
3252.09	949.266
3254.66	1021.21
3257.23	1029.13
3259.79	967.03
3262.36	900.9137
3264.92	851.777
3267.49	747.621
3270.05	684.445
3272.61	607.248
3275.17	551.0318
3277.73	443.795
3280.29	404.536
3282.85	337.258
3285.41	266.958
3287.96	230.636
3290.52	294.293
3293.07	172.928
3295.63	183.542
3298.18	141.134
3300.73	110.703
3303.28	141.2502
3305.83	109.774
3308.38	101.277
3310.93	124.756
3313.479	46.2131
3316.03	47.6466
3318.57	96.058
3321.12	62.44553
3323.66	49.8099
3326.21	42.152
3328.75	60.4699
3331.29	78.7654
3333.83	107.0369
3336.37	99.2849
3338.91	-14.4897
3341.448	106.712
3343.99	62.88942
3346.52	70.0446
3349.06	93.1756
3351.593	34.2833
3354.13	88.3681
3356.66	24.4291
3359.19	75.4668
3361.72	75.4813
3364.25	82.4727
3366.79	71.4415
3369.31	59.3869
3371.84	50.3094
3374.37	73.2091
3376.9	86.0863
3379.42	78.9409
3381.95	66.7737
3384.47	39.5837
3386.99	66.3719
3389.52	71.1381
3392.04	90.8828
3394.56	77.606
3397.08	48.3079
3399.6	106.989
3402.12	103.649
3404.63	80.2891
3407.15	102.909
3409.66	90.5084
3412.179	95.0885
3414.69	94.6493
3417.21	74.191
3419.72	116.714
3422.23	97.2189
3424.74	95.7058
3427.25	93.1751
3429.76	79.627
3432.27	90.0625
3434.77	95.4816
3437.28	102.8848
3439.79	121.273
3442.29	98.6454
3444.79	128.004
3447.3	51.348
3449.8	154.679
3452.3	83.9969
3454.8	86.3023
3457.3	99.5962
3459.8	79.8788
3462.3	87.1506
3464.79	94.4126
3467.29	58.66526
3469.79	67.90918
3472.28	90.14489
3474.77	49.3734
3477.27	67.5951
3479.76	4.81098
3482.25	1.02169
3484.741	74.2278
3487.23	75.4305
3489.72	36.6301
3492.21	58.8278
3494.69	53.0242
3497.18	10.22031
3499.666	24.4169
3502.15	50.6149
3504.63	41.8152
3507.12	20.0189
3509.6	-0.773349
3512.08	42.4397
3514.56	76.6588
3517.04	5.88516
3519.521	53.1198
3522	40.3637
3524.48	85.6181
3526.95	36.8838
3529.43	4.16208
3531.9	67.4543
3534.38	44.76128
3536.85	36.0843
3539.32	72.4247
3541.79	32.7839
3544.26	60.1626
3546.73	57.5624
3549.2	64.9847
3551.67	71.4309
3554.14	87.902
3556.61	5.3995
3559.07	52.9249
3561.54	21.4795
3564	70.0649
3566.46	38.683
3568.93	50.3343
3571.39	77.021
3573.85	2.74441
3576.31	43.5062
3578.77	57.3079
3581.23	61.1514
3583.68	5.03806
3586.14	29.9697
3588.6	118.948
3591.052	87.9747
3593.51	39.0516
3595.96	35.18042
3598.41	31.3631
3600.865	59.60144
3603.32	33.8972
3605.77	28.2524
3608.22	43.6689
3610.665	-13.8512
3613.11	26.6932
3615.56	55.3057
3618.01	32.9874
3620.45	-14.2592
3622.896	73.5677
3625.34	53.4703
3627.78	47.4498
3630.22	-0.489746
3632.67	10.6533
3635.11	30.8807
3637.55	58.1936
3639.99	36.59721
3642.42	30.0924
3644.86	29.6798
3647.3	63.3654
3649.73	76.1497
3652.17	25.0336
3654.6	51.0228
3657.04	10.1184
3659.47	32.32151
3661.9	33.6379