File: data/SEM_Raman_Data/KZPd_180109-1/Sample_20180109-1.txt
672.793	7.15624
676.3017	13.2457
679.809	9.20765
683.316	10.7921
686.818	5.624083
690.322	6.32874
693.824	8.28102
697.325	6.73095
700.825	5.30357
704.321	8.37378
707.8175	5.81685
711.313	2.38267
714.807	6.94629
718.3	5.63273
721.789	5.4419
725.279	-0.000944659
728.768	4.80411
732.255	5.232079
735.7392	5.5329
739.224	7.3318
742.707	3.0037
746.187	5.17352
749.668	6.96649
753.147	4.00753
756.623	6.29658
760.1	7.83384
763.575	4.49424
767.047	3.27772
770.519	5.80948
773.9906	4.589458
777.4585	4.36758
780.927	7.51905
784.394	4.1688
787.858	8.06676
791.323	7.838141
794.784	6.60778
798.246	7.125865
801.705	8.89226
805.164	8.15714
808.6217	8.42045
812.076	5.43213
815.532	10.4424
818.984	8.326
822.436	5.45822
825.885	6.0889
829.335	9.2182
832.782	10.221
836.229	5.722445
839.673	7.59743
843.118	7.7211
846.559	6.718348
849.999	3.58925
853.44	7.9589
856.878	8.827179
860.316	10.9442
863.75	6.93495
867.186	14.5495
870.618	8.0377
874.049	7.1497
877.48	8.51056
880.909	7.12017
884.335	6.97861
887.763	10.336
891.187	9.0671
894.612	8.92218
898.034	11.6511
901.454	11.8789
904.873	9.10563
908.293	12.5814
911.709	10.431
915.124	13.9046
918.54	9.62719
921.953	16.0987
925.364	15.8193
928.774	18.1639
932.184	30.0076
935.592	41.9752
938.998	51.192
942.402	56.7828
945.8078	54.2477
949.21	54.5867
952.611	52.17482
956.01	52.8871
959.409	51.3484
962.805	55.1839
966.203	51.7687
969.597	58.3525
972.99	54.1856
976.3822	57.7678
979.773	54.7243
983.162	55.18
986.55	48.3849
989.936	40.089
993.324	27.6675
996.708	26.2452
1000.09	17.6971
1003.47	16.5234
1006.852	12.3489
1010.23	11.2987
1013.61	11.6229
1016.98	8.9464
1020.36	7.64423
1023.73	8.34141
1027.11	5.66294
1030.48	4.35885
1033.85	4.80413
1037.22	4.24879
1040.58	2.06785
1043.95	5.13632
1047.31	4.5792
1050.68	3.2715
1054.04	3.83823
1057.4	2.4044
1060.76	2.21999
1064.12	2.78506
1067.47	2.09961
1070.83	0.0386214
1074.18	-0.02288302
1077.54	5.0401
1080.89	2.72758
1084.24	3.28957
1087.59	4.10103
1090.937	0.787052
1094.28	1.472596
1097.63	0.532678
1100.97	1.5923
1104.32	0.401472
1107.66	3.33516
1111	1.14345
1114.34	2.70131
1117.68	1.50875
1121.01	0.815739
1124.35	1.62235
1127.68	1.67855
1131.014	3.48436
1134.344	5.03975
1137.67	1.59478
1141.004	3.64943
1144.33	1.95368
1147.66	2.5076
1150.98	2.31115
1154.31	2.114315
1157.63	2.66716
1160.95	2.21967
1164.27	5.3968
1167.59	3.44863
1170.91	4.50014
1174.22	2.80129
1177.54	3.72715
1180.85	5.90268
1184.16	2.20292
1187.47	2.50286
1190.78	3.80248
1194.09	-0.0231707
1197.4	0.7758655
1200.71	1.824646
1204.01	3.37312
1207.31	0.671347
1210.615	1.46928
1213.92	2.391969
1217.22	0.439373
1220.52	3.86155
1223.81	3.15844
1227.11	1.95511
1230.4	4.75152
1233.7	0.797702
1236.99	1.84363
1240.28	1.88932
1243.57	2.5598
1246.86	4.35504
1250.15	1.27508
1253.43	3.94487
1256.71	0.8644563
1259.999	3.03385
1263.28	2.07801
1266.56	4.87199
1269.84	4.16575
1273.12	2.83431
1276.4	5.37769
1279.67	2.17086
1282.95	5.33884
1286.22	4.131639
1289.49	2.67427
1292.76	4.46671
1296.03	3.38396
1299.304	2.17607
1302.57	5.84297
1305.84	4.63471
1309.1	6.05128
1312.37	7.09272
1315.63	7.38396
1318.89	5.80005
1322.15	9.46598
1325.41	11.00676
1328.67	12.2974
1331.92	16.9629
1335.18	18.2532
1338.43	25.7934
1341.68	28.2084
1344.93	27.9983
1348.18	29.5381
1351.43	26.2027
1354.68	21.4922
1357.93	17.03158
1361.17	14.6958
1364.42	14.7349
1367.66	10.8989
1370.9	9.68771
1374.14	11.2264
1377.38	9.14002
1380.616	7.42849
1383.85	6.21685
1387.09	4.13009
1390.322	6.79321
1393.55	8.08122
1396.79	5.11911
1400.02	4.7819
1403.25	5.94457
1406.47	5.35713
1409.7	2.51959
1412.93	1.43194
1416.15	3.09419
1419.38	3.75633
1422.6	5.16837
1425.82	4.20531
1429.04	3.99215
1432.25	4.90387
1435.47	4.44051
1438.69	3.22705
1441.9	3.5135
1445.12	3.17486
1448.33	6.46112
1451.54	2.49726
1454.75	3.65834
1457.96	6.56932
1461.17	4.48022
1464.37	5.26602
1467.58	4.801713
1470.78	4.46234
1473.98	3.49788
1477.19	4.65833
1480.39	2.94368
1483.58	3.60396
1486.78	4.88916
1489.98	4.04927
1493.17	6.08429
1496.37	7.24423
1499.563	5.654099
1502.75	5.43886
1505.94	6.72357
1509.14	4.88319
1512.32	4.66771
1515.51	5.45218
1518.7	7.61156
1521.88	5.52084
1525.06	7.80507
1528.25	8.0892
1531.43	9.24827
1534.61	9.03226
1537.79	11.0662
1540.96	12.85
1544.14	11.8837
1547.32	14.5424
1550.489	17.826
1553.66	19.10956
1556.83	23.018
1560	28.4264
1563.17	39.7097
1566.34	53.7429
1569.51	71.7761
1572.675	102.809
1575.84	133.342
1579	173.375
1582.16	191.033
1585.32	174.066
1588.49	143.348
1591.64	110.006
1594.8	71.2886
1597.96	49.9461
1601.11	38.8535
1604.27	28.2608
1607.42	19.5431
1610.57	15.9502
1613.72	15.2324
1616.871	14.0144
1620.02	13.5463
1623.17	12.4532
1626.31	12.1101
1629.46	9.01679
1632.6	7.04847
1635.74	9.70505
1638.88	5.98657
1642.02	4.518
1645.16	5.17438
1648.3	2.95567
1651.44	4.98689
1654.57	4.14302
1657.7	4.42409
1660.84	5.33009
1663.97	4.986
1667.1	3.76684
1670.23	5.1726
1673.36	3.453285
1676.48	3.85889
1679.61	4.38944
1682.74	4.7949
1685.86	1.20027
1688.98	1.23058
1692.1	2.3858
1695.22	2.29095
1698.34	1.94602
1701.46	3.97601
1704.58	4.13092
1707.69	0.0357515
1710.81	0.690507
1713.92	3.84518
1717.03	2.62478
1720.14	0.654297
1723.25	2.55873
1726.36	2.46309
1729.47	2.61737
1732.58	2.89657
1735.68	3.05068
1738.78	2.07972
1741.89	1.73367
1744.99	1.51254
1748.09	1.91633
1751.19	1.94504
1754.29	2.97366
1757.39	4.252202
1760.48	2.40564
1763.58	1.43402
1766.67	4.21231
1769.76	2.49052
1772.85	1.39364
1775.94	2.79668
1779.03	3.69961
1782.12	3.97748
1785.21	0.38026
1788.29	5.03296
1791.379	1.68556
1794.46	2.33807
1797.54	2.11551
1800.63	3.64285
1803.7	3.170099
1806.78	1.82227
1809.86	3.97436
1812.94	2.25135
1816.01	2.153244
1819.09	5.05506
1822.16	1.83179
1825.23	5.60841
1828.31	3.88496
1831.38	0.911421
1834.44	4.56277
1837.51	4.33905
1840.58	4.990221
1843.64	4.51631
1846.71	1.79232
1849.77	3.69321
1852.83	2.71903
1855.89	3.24474
1858.95	4.02037
1862.01	4.54589
1865.07	5.32134
1868.125	4.72167
1871.18	2.99693
1874.23	5.64708
1877.29	5.42215
1880.34	3.572104
1883.39	5.721981
1886.44	4.24675
1889.49	2.77143
1892.54	3.29601
1895.58	3.8205
1898.63	4.969882
1901.67	5.24417
1904.72	3.393369
1907.76	3.66746
1910.8	4.06647
1913.84	4.46536
1916.88	4.11416
1919.91	2.51287
1922.95	2.03647
1925.98	1.80997
1929.02	2.45839
1932.052	3.23169
1935.08	4.25489
1938.11	4.278
1941.14	6.42601
1944.17	2.19892
1947.2	2.97172
1950.23	4.61942
1953.25	2.26704
1956.28	3.91454
1959.3	4.93693
1962.32	3.33423
1965.34	5.35643
1968.36	1.37854
1971.38	3.15053
1974.4	3.79742
1977.41	-0.0557912
1980.43	4.21589
1983.44	3.98748
1986.46	7.88396
1989.469	4.03035
1992.48	2.801625
1995.49	4.5728
1998.498	2.84387
2001.51	6.114831
2004.512	6.13569
2007.52	4.40645
2010.52	4.55211
2013.52	3.82266
2016.527	4.3431
2019.53	5.48845
2022.528	4.13368
2025.527	3.40382
2028.52	3.17385
2031.52	3.56877
2034.52	4.213593
2037.51	5.48331
2040.51	3.62792
2043.5	4.522428
2046.49	3.54183
2049.478	4.06112
2052.47	4.08031
2055.46	5.3494
2058.44	4.49338
2061.43	1.63726
2064.41	2.90603
2067.4	2.6747
2070.38	2.443249
2073.36	4.08671
2076.34	2.98006
2079.32	3.74831
2082.3	3.516449
2085.28	1.90948
2088.25	1.55241
2091.23	4.69524
2094.2	2.33795
2097.17	3.73057
2100.146	2.99808
2103.12	3.64049
2106.09	2.032779
2109.05	4.67498
2112.02	2.81707
2114.99	3.45905
2117.95	3.10093
2120.92	4.24271
2123.88	2.13438
2126.844	0.1509506
2129.804	2.54241
2132.76	3.55877
2135.72	2.32503
2138.68	2.96617
2141.64	2.232224
2144.59	4.24816
2147.55	4.13901
2150.5	2.90474
2153.46	3.92037
2156.41	1.9359
2159.36	1.95133
2162.31	3.09165
2165.25	2.85687
2168.2	3.12198
2171.15	2.512001
2174.09	4.52691
2177.04	2.54172
2179.98	4.431428
2182.92	2.696039
2185.86	2.08554
2188.8	4.22494
2191.74	2.36425
2194.68	3.25344
2197.61	3.89254
2200.551	0.0315438
2203.48	1.54544
2206.418	2.93424
2209.35	3.94794
2212.28	1.21154
2215.21	5.60003
2218.14	4.73844
2221.07	3.376735
2224	4.764935
2226.92	2.27804
2229.85	3.79105
2232.77	4.30395
2235.69	7.06676
2238.62	4.07947
2241.54	1.84208
2244.46	3.72961
2247.38	3.99203
2250.29	4.25435
2253.21	4.39158
2256.13	3.15371
2259.04	3.91575
2261.95	2.05269
2264.87	3.06454
2267.78	1.70129
2270.69	5.21295
2273.6	4.22452
2276.51	2.73599
2279.41	2.62236
2282.32	2.13365
2285.22	3.39484
2288.13	3.65594
2291.031	3.79195
2293.93	3.927871
2296.834	3.0637
2299.73	2.57443
2302.63	4.21008
2305.53	5.47064
2308.43	2.4811
2311.32	3.61648
2314.22	4.75177
2317.11	3.38697
2320.01	4.14708
2322.9	3.6571
2325.79	4.16704
2328.676	3.92689
2331.56	2.31166
2334.45	5.32134
2337.34	2.70593
2340.23	4.34044
2343.11	3.97485
2345.99	3.73419
2348.87	4.74345
2351.76	2.62762
2354.64	3.51171
2357.52	3.89571
2360.39	2.65464
2363.27	2.413482
2366.15	5.92224
2369.02	3.93092
2371.9	3.31452
2374.77	3.94804
2377.64	3.83148
2380.51	4.33984
2383.38	1.848124
2386.25	3.85633
2389.12	1.61446
2391.99	4.747509
2394.853	5.00549
2397.72	1.88839
2400.58	6.77121
2403.45	5.02896
2406.31	3.03663
2409.17	2.79423
2412.03	5.17675
2414.89	4.559206
2417.74	2.44158
2420.6	5.57389
2423.46	6.95613
2426.31	8.5883
2429.16	9.72039
2432.02	8.10242
2434.87	12.1094
2437.72	11.8663
2440.57	13.7481
2443.42	14.2548
2446.27	17.1365
2449.11	18.0181
2451.96	20.8997
2454.8	21.9062
2457.65	19.4126
2460.49	17.7939
2463.33	16.80023
2466.17	19.6815
2469.01	17.4376
2471.85	14.3187
2474.69	15.0748
2477.53	11.5807
2480.36	12.8367
2483.19	14.0925
2486.03	10.8483
2488.86	9.72906
2491.69	10.1097
2494.52	11.3654
2497.35	9.87092
2500.18	8.50143
2503.01	6.63188
2505.84	8.38728
2508.66	6.64262
2511.49	8.2729
2514.31	7.52813
2517.13	8.15831
2519.95	8.16344
2522.78	7.54351
2525.59	7.04853
2528.41	6.6785
2531.23	6.683423
2534.05	7.31329
2536.86	6.81811
2539.68	6.57288
2542.491	8.95261
2545.3	6.33228
2548.12	7.33691
2550.93	5.84149
2553.74	5.09603
2556.54	5.35052
2559.35	7.35496
2562.16	6.85936
2564.96	7.48872
2567.77	5.36804
2570.57	6.87231
2573.375	6.25154
2576.177	8.13073
2578.978	8.00987
2581.78	7.76398
2584.58	8.01805
2587.375	6.77208
2590.17	10.2761
2592.97	8.53002
2595.762	8.03394
2598.56	10.2878
2601.35	8.541666
2604.14	7.04547
2606.93	8.42425
2609.72	10.178
2612.51	10.4317
2615.3	9.56036
2618.09	12.064
2620.87	12.5676
2623.658	13.69619
2626.44	16.1997
2629.22	15.9533
2632.01	17.2067
2634.79	20.8352
2637.57	20.4636
2640.35	25.342
2643.13	26.9704
2645.9	31.9737
2648.68	38.2271
2651.45	42.4804
2654.23	52.8586
2657	58.1119
2659.77	73.8651
2662.55	90.8683
2665.32	111.246
2668.09	134
2670.85	154.003
2673.62	184.006
2676.39	226.259
2679.15	264.012
2681.92	291.14
2684.68	331.518
2687.45	375.146
2690.21	395.399
2692.968	409.4021
2695.73	423.78
2698.49	420.408
2701.24	403.286
2704.001	370.664
2706.76	314.917
2709.51	273.295
2712.27	223.548
2715.02	183.4254
2717.772	144.553
2720.52	120.431
2723.27	97.3089
2726.02	79.6867
2728.77	68.0646
2731.52	54.6923
2734.26	43.5701
2737.01	40.0729
2739.75	35.4507
2742.5	29.4535
2745.24	25.9562
2747.98	21.334
2750.72	22.5867
2753.46	19.2145
2756.2	16.2172
2758.939	16.0949
2761.68	14.8477
2764.41	14.9754
2767.15	11.8531
2769.88	13.8558
2772.613	12.3585
2775.345	12.48626
2778.08	10.739
2780.81	10.4917
2783.54	10.1194
2786.26	8.24712
2788.991	8.99984
2791.72	9.25256
2794.44	10.5053
2797.17	8.88301
2799.89	7.51073
2802.61	6.263463
2805.334	5.7662
2808.05	5.51893
2810.77	6.39668
2813.49	7.14942
2816.21	6.77718
2818.93	7.90494
2821.65	6.2827
2824.36	7.78548
2827.07	7.03826
2829.79	7.41604
2832.5	5.41884
2835.21	5.29665
2837.92	6.04946
2840.63	5.30228
2843.34	6.05512
2846.05	5.182961
2848.75	6.81081
2851.46	6.31368
2854.16	5.56656
2856.87	5.81944
2859.57	4.82235
2862.272	4.32526
2864.97	6.57818
2867.67	6.33112
2870.37	6.83408
2873.07	5.46204
2875.77	5.71503
2878.46	5.96802
2881.16	4.72103
2883.85	6.47406
2886.55	5.6021
2889.24	6.85516
2891.93	3.98324
2894.62	4.48633
2897.311	6.61444
2900	5.49256
2902.688	4.49571
2905.37	6.49887
2908.061	4.25205
2910.75	3.00525
2913.43	6.50847
2916.11	5.13671
2918.8	5.38996
2921.48	8.76824
2924.16	6.39654
2926.84	5.89986
2929.52	5.903194
2932.19	6.40655
2934.87	4.78493
2937.55	5.53833
2940.22	4.54176
2942.89	7.4202
2945.57	7.29867
2948.24	4.42716
2950.91	4.80567
2953.58	5.68421
2956.25	5.06277
2958.92	6.69135
2961.59	5.06995
2964.25	5.82358
2966.92	7.32723
2969.59	5.20591
2972.25	2.95961
2974.91	3.96333
2977.57	5.59208
2980.24	1.09586
2982.9	6.59965
2985.55	4.97848
2988.21	3.60733
2990.87	3.7362
2993.53	2.9901
2996.18	3.49403
2998.84	2.62298
3001.49	3.25196
3004.14	1.88096
3006.8	3.13499
3009.45	4.88905
3012.1	3.143131
3014.75	4.64724
3017.396	1.90138
3020.04	2.90554
3022.69	3.90973
3025.34	2.03894
3027.98	2.16819
3030.63	3.42246
3033.27	1.55175
3035.91	2.05607
3038.55	3.43543
3041.19	0.814804
3043.83	2.56921
3046.47	1.94864
3049.11	5.3281
3051.74	3.58259
3054.38	2.9621
3057.01	3.46664
3059.65	1.72121
3062.281	2.72581
3064.91	3.48043
3067.55	1.36008
3070.17	-0.0102452
3072.8	3.24446
3075.43	2.374192
3078.06	4.37895
3080.69	2.38374
3083.31	3.38855
3085.94	4.51839
3088.563	1.27325
3091.19	4.27814
3093.81	1.40806
3096.43	4.28801
3099.05	1.16798
3101.67	2.29798
3104.29	3.428
3106.91	2.18306
3109.52	3.81313
3112.14	1.06823
3114.75	1.82336
3117.37	3.32852
3119.98	3.2087
3122.59	0.5889
3125.21	2.46913
3127.82	2.97439
3130.427	2.47967
3133.04	3.10997
3135.64	3.2403
3138.251	3.370651
3140.86	2.25103
3143.46	3.25643
3146.07	1.01185
3148.67	1.5173
3151.27	3.272768
3153.874	2.02826
3156.48	1.65878
3159.08	1.66432
3161.67	3.04488
3164.27	1.67546
3166.87	3.68106
3169.47	2.81169
3172.06	3.192333
3174.66	2.947999
3177.251	3.703686
3179.85	4.7094
3182.437	1.21512
3185.03	2.97087
3187.62	2.85163
3190.21	3.232419
3192.8	2.61322
3195.38	1.24404
3197.97	3.24988
3200.56	3.505738
3203.14	3.63661
3205.73	2.8925
3208.31	4.27341
3210.89	2.02933
3213.47	3.785269
3216.054	5.04122
3218.63	4.42219
3221.21	5.30317
3223.791	6.30917
3226.37	7.06518
3228.95	9.6962
3231.52	10.3272
3234.1	12.0833
3236.67	13.3393
3239.241	17.9704
3241.81	19.2265
3244.38	22.1076
3246.96	21.9887
3249.52	19.8698
3252.09	20.0009
3254.66	13.757
3257.23	14.8882
3259.79	12.1443
3262.36	10.1505
3264.92	6.40661
3267.49	5.78777
3270.05	5.29394
3272.61	4.92511
3275.17	4.55628
3277.73	3.81246
3280.29	2.31863
3282.85	1.57482
3285.41	1.706
3287.96	2.46218
3290.52	1.21836
3293.07	1.09955
3295.63	2.98073
3298.18	2.98691
3300.73	1.61809
3303.28	2.99926
3305.83	1.88043
3308.38	1.136602
3310.93	1.39276
3313.479	2.52392
3316.03	0.53007
3318.57	2.53621
3321.12	2.29235
3323.66	2.67347
3326.21	2.054595
3328.75	2.1857
3331.29	1.9418
3333.83	1.94789
3336.37	2.20396
3338.91	1.08502
3341.448	2.34107
3343.99	2.3471
3346.52	1.72812
3349.06	3.85912
3351.593	1.11511
3354.13	1.87108
3356.66	1.62703
3359.19	1.25796
3361.72	0.0138683
3364.25	1.39476
3366.79	2.90063
3369.31	2.53147
3371.84	1.6623
3374.37	1.29309
3376.9	1.54887
3379.42	3.17961
3381.95	1.56034
3384.47	1.06603
3386.99	1.94669
3389.52	2.70233
3392.04	1.45793
3394.56	1.9635
3397.08	2.46904
3399.6	1.97455
3402.12	0.855025
3404.63	1.86046
3407.15	1.49086
3409.66	0.24623
3412.179	2.37656
3414.69	1.38185
3417.21	1.13709
3419.72	2.5173
3422.23	1.89747
3424.74	3.27759
3427.25	3.28267
3429.76	1.2877
3432.27	2.667686
3434.77	2.79763
3437.28	3.17752
3439.79	2.55736
3442.29	3.56216
3444.79	1.44189
3447.3	3.32158
3449.8	3.45122
3452.3	2.7058
3454.8	1.08533
3457.3	2.58979
3459.8	1.09421
3462.3	2.223556
3464.79	0.852848
3467.29	2.23208
3469.79	1.61125
3472.28	1.49035
3474.77	2.11939
3477.27	0.998364
3479.76	1.87727
3482.25	0.631111
3484.741	1.509879
3487.23	1.76358
3489.72	1.2672
3492.21	1.14576
3494.69	2.27424
3497.18	2.52764
3499.666	2.155968
3502.15	1.53422
3504.63	1.53739
3507.12	0.665479
3509.6	1.29349
3512.08	2.04641
3514.56	2.54925
3517.04	1.55201
3519.521	3.30468
3522	1.93226
3524.48	1.059749
3526.95	0.437149
3529.43	0.689457
3531.9	1.06667
3534.38	1.94379
3536.85	2.32082
3539.32	1.07274
3541.79	1.44957
3544.26	0.326302
3546.73	0.702928
3549.2	1.82945
3551.67	0.830873
3554.14	2.95719
3556.61	0.708394
3559.07	1.584493
3561.54	1.46048
3564	1.21136
3566.46	2.46213
3568.93	0.212777
3571.39	2.46331
3573.85	2.96373
3576.31	1.33903
3578.77	0.214213
3581.23	2.21427
3583.68	2.58921
3586.14	0.714021
3588.6	0.713707
3591.052	2.21327
3593.51	1.7127
3595.96	2.087
3598.41	2.46117
3600.865	2.0852
3603.32	1.7091
3605.77	1.33287
3608.22	1.70649
3610.665	1.82998
3613.11	2.07832
3615.56	0.826527
3618.01	0.449586
3620.45	2.4475
3622.896	0.570265
3625.34	-0.05711855
3627.78	0.940349
3630.22	3.31266
3632.67	1.43482
3635.11	1.80683
3637.55	2.67868
3639.99	0.0503683
3642.42	1.9219
3644.86	1.04327
3647.3	1.78947
3649.73	0.410509
3652.17	0.531384
3654.6	1.77709
3657.04	0.64762
3659.47	0.642984
3661.9	0.513171