File: data/SEM_Raman_Data/KZPd_170904-3/20170924_Gr on SiO2_2_spec.txt
672.793	204.134
676.3017	152.555
679.809	128.82
683.316	80.9312
686.818	120.889
690.322	99.7015
693.824	64.3684
697.325	72.89241
700.825	61.276
704.321	-9.48061
707.8175	21.6301
711.313	18.6079
714.807	38.4555
718.3	-3.82474
721.789	6.76764
725.279	0.239173
728.768	-0.409861
732.255	17.8228
735.7392	40.938
739.224	-33.0586
742.707	9.83344
746.187	16.615
749.668	7.29138
753.147	39.8633
756.623	-6.66861
760.1	28.7007
763.575	27.9721
767.047	48.1463
770.519	54.228
773.9906	25.218
777.4585	80.1172
780.927	58.9298
784.394	75.6568
787.858	19.2993
791.323	111.861
794.784	48.342
798.246	91.74617
801.705	68.0736
805.164	60.3277
808.6217	44.5096
812.076	113.62
815.532	34.6634
818.984	86.6389
822.436	73.55
825.885	45.3972
829.335	40.1834
832.782	50.9093
836.229	105.577
839.673	57.1884
843.118	11.745
846.559	31.2479
849.999	53.6992
853.44	54.1006
856.878	73.4531
860.316	37.7588
863.75	-0.981315
867.186	35.2347
870.618	45.4079
874.049	35.5401
877.48	33.6325
880.909	21.68664
884.335	21.7038
887.763	60.6854
891.187	96.6328
894.612	28.5473
898.034	79.43029
901.454	86.28299
904.873	62.1067
908.293	145.903
911.709	92.672
915.124	96.4161
918.54	106.136
921.953	199.833
925.364	228.5085
928.774	466.163
932.184	695.798
935.592	915.415
938.998	1176.01
942.402	1203.6
945.8078	1162.17
949.21	1200.72
952.611	1139.26
956.01	1214.79
959.409	1286.31
962.805	1190.82
966.203	1262.31
969.597	1251.8
972.99	1216.29
976.3822	1208.76
979.773	1165.24
983.162	1099.7
986.55	901.165
989.936	617.624
993.324	491.082
996.708	365.538
1000.09	305.994
1003.47	239.45
1006.852	208.907
1010.23	173.366
1013.61	165.827
1016.98	104.292
1020.36	68.7602
1023.73	68.2334
1027.11	41.712
1030.48	21.19647
1033.85	-20.3124
1037.22	-36.814
1040.58	-30.3077
1043.95	-66.7929
1047.31	-43.2691
1050.68	-110.736
1054.04	-78.1918
1057.4	-85.6372
1060.76	-81.0711
1064.12	-74.4933
1067.47	-94.9032
1070.83	-75.3002
1074.18	-104.684
1077.54	-55.0537
1080.89	-82.4091
1084.24	-87.7499
1087.59	-115.075
1090.937	-70.3851
1094.28	-68.679
1097.63	-87.95639
1100.97	-78.2169
1104.32	-45.4603
1107.66	-31.6859
1111	-6.89366
1114.34	5.91687
1117.68	7.74604
1121.01	10.5943
1124.35	-21.5383
1127.68	10.3487
1131.014	-7.74445
1134.344	18.1826
1137.67	35.1301
1141.004	-9.90169
1144.33	16.0874
1147.66	66.0978
1150.98	93.1295
1154.31	43.1829
1157.63	56.2582
1160.95	54.3555
1164.27	66.47506
1167.59	88.6171
1170.91	42.7818
1174.22	30.9691
1177.54	65.1796
1180.85	36.4129
1184.16	105.67
1187.47	60.9498
1190.78	67.2532
1194.09	0.580451
1197.4	60.9312
1200.71	69.3059
1204.01	108.704
1207.31	88.1269
1210.615	104.573
1213.92	108.044
1217.22	90.5388
1220.52	114.058
1223.81	68.6011
1227.11	76.1689
1230.4	98.7607
1233.7	121.377
1236.99	178.018
1240.28	116.682
1243.57	129.372
1246.86	89.0855
1250.15	112.824
1253.43	169.586
1256.71	199.373
1259.999	176.184
1263.28	190.019
1266.56	129.878
1269.84	202.762
1273.12	110.669
1276.4	176.601
1279.67	196.556
1282.95	237.536
1286.22	229.539
1289.49	263.566
1292.76	278.616
1296.03	257.69
1299.304	304.788
1302.57	315.908
1305.84	330.052
1309.1	412.219
1312.37	375.409
1315.63	462.6217
1318.89	445.857
1322.15	481.115
1325.41	565.3949
1328.67	565.698
1331.92	741.023
1335.18	927.3692
1338.43	983.737
1341.68	1220.13
1344.93	1457.54
1348.18	1472.97
1351.43	1506.43
1354.68	1449.9
1357.93	1286.4
1361.17	1148.913
1364.42	932.45
1367.66	842.006
1370.9	750.583
1374.14	723.18
1377.38	653.796
1380.616	616.432
1383.85	626.086
1387.09	550.76
1390.322	681.453
1393.55	564.164
1396.79	536.893
1400.02	609.641
1403.25	647.406
1406.47	619.189
1409.7	585.99
1412.93	594.808
1416.15	600.642
1419.38	618.494
1422.6	576.361
1425.82	629.246
1429.04	573.146
1432.25	621.06
1435.47	640.992
1438.69	614.938
1441.9	685.9
1445.12	668.876
1448.33	619.867
1451.54	706.871
1454.75	661.89
1457.96	695.922
1461.17	751.969
1464.37	748.028
1467.58	728.099
1470.78	779.1839
1473.98	785.281
1477.19	796.391
1480.39	761.511
1483.58	782.644
1486.78	829.788
1489.98	844.943
1493.17	859.108
1496.37	888.285
1499.563	883.471
1502.75	874.667
1505.94	962.873
1509.14	957.089
1512.32	975.313
1515.51	979.547
1518.7	985.789
1521.88	937.0387
1525.06	934.297
1528.25	1005.56
1531.43	930.837
1534.61	912.118
1537.79	978.405
1540.96	1004.7
1544.14	991.999
1547.32	963.307
1550.489	1007.62
1553.66	905.937
1556.83	949.26
1560	980.588
1563.17	997.921
1566.34	961.259
1569.51	1019.6
1572.675	1074.95
1575.84	1219.29
1579	1342.65
1582.16	1382
1585.32	1493.36
1588.49	1682.72
1591.64	1895.08
1594.8	2251.448
1597.96	2598.814
1601.11	2986.18
1604.27	2847.55
1607.42	2335.92
1610.57	1727.29
1613.72	1257.66
1616.871	1097.03
1620.02	889.404
1623.17	779.775
1626.31	801.144
1629.46	638.513
1632.6	600.881
1635.74	494.2471
1638.88	414.611
1642.02	358.973
1645.16	348.334
1648.3	323.692
1651.44	283.047
1654.57	270.398
1657.7	226.7467
1660.84	234.093
1663.97	180.434
1667.1	181.772
1670.23	143.105
1673.36	102.434
1676.48	146.758
1679.61	97.0784
1682.74	55.3926
1685.86	73.7012
1688.98	33.0043
1692.1	38.3016
1695.22	22.5928
1698.34	46.8777
1701.46	14.1561
1704.58	2.42774
1707.69	2.69245
1710.81	17.95002
1713.92	-2.79987
1717.03	-20.5573
1720.14	-7.3226
1723.25	-10.096
1726.36	4.12255
1729.47	-10.6674
1732.58	-14.46616
1735.68	-14.2736
1738.78	6.90979
1741.89	-32.916
1744.99	-10.75136
1748.09	-0.596238
1751.19	-21.451
1754.29	-27.3158
1757.39	-21.1909
1760.48	-79.07753
1763.58	-26.97348
1766.67	-1.88027
1769.76	-33.7981
1772.85	-14.7269
1775.94	-29.6671
1779.03	-27.6199
1782.12	-10.5832
1785.21	-12.5583
1788.29	14.4547
1791.379	2.4554
1794.46	-24.5573
1797.54	8.41874
1800.63	-2.61788
1803.7	-1.66833
1806.78	8.26938
1809.86	-44.806
1812.94	-25.8946
1816.01	22.0023
1819.09	-18.1132
1822.16	11.7577
1825.23	-15.3863
1828.31	11.4568
1831.38	37.286
1834.44	16.0998
1837.51	-28.0995
1840.58	4.68563
1843.64	16.4572
1846.71	17.2142
1849.77	30.9553
1852.83	-17.3174
1855.89	-16.6063
1858.95	6.0908
1862.01	0.77168
1865.07	-32.5618
1868.125	37.0882
1871.18	22.7237
1874.23	15.3426
1877.29	36.9467
1880.34	-11.466
1883.39	28.1063
1886.44	18.6616
1889.49	26.2018
1892.54	-4.27511
1895.58	15.2326
1898.63	31.72311
1901.67	2.197248
1904.72	21.6557
1907.76	24.0967
1910.8	52.522
1913.84	14.9297
1916.88	1.32074
1919.91	39.6957
1922.95	32.053
1925.98	28.3934
1929.02	0.717529
1932.052	43.0238
1935.08	33.3131
1938.11	10.5853
1941.14	47.841
1944.17	32.0788
1947.2	44.2993
1950.23	67.5026
1953.25	42.6892
1956.28	30.8577
1959.3	21.009
1962.32	67.1427
1965.34	18.2591
1968.36	20.35862
1971.38	57.4401
1974.4	57.504
1977.41	35.5505
1980.43	64.5794
1983.44	43.5908
1986.46	50.5847
1989.469	66.5616
1992.48	36.5204
1995.49	39.4617
1998.498	46.3854
2001.51	68.2916
2004.512	64.1803
2007.52	42.0514
2010.52	63.905
2013.52	53.7412
2016.527	53.5599
2019.53	38.3611
2022.528	46.14481
2025.527	35.9112
2028.52	77.6601
2031.52	78.3917
2034.52	63.106
2037.51	80.8029
2040.51	49.4826
2043.5	42.145
2046.49	84.7902
2049.478	26.4179
2052.47	43.0289
2055.46	35.6228
2058.44	54.1996
2061.43	22.7595
2064.41	44.3024
2067.4	50.8284
2070.38	37.3374
2073.36	56.8298
2076.34	44.3056
2079.32	65.7647
2082.3	20.2072
2085.28	64.6329
2088.25	57.0424
2091.23	64.4356
2094.2	54.8121
2097.17	102.173
2100.146	76.5171
2103.12	41.84536
2106.09	64.15744
2109.05	71.4538
2112.02	50.7342
2114.99	66.9987
2117.95	67.2477
2120.92	58.4811
2123.88	57.6988
2126.844	57.9012
2129.804	103.088
2132.76	39.26
2135.72	61.4167
2138.68	41.5582
2141.64	95.6849
2144.59	36.7967
2147.55	34.8937
2150.5	63.9761
2153.46	100.044
2156.41	86.0973
2159.36	47.1364
2162.31	45.1613
2165.25	52.918
2168.2	57.7402
2171.15	57.7231
2174.09	57.6922
2177.04	46.0762
2179.98	34.0181
2182.92	43.9466
2185.86	28.8618
2188.8	36.7639
2191.74	32.6529
2194.68	49.529
2197.61	56.3923
2200.551	16.2429
2203.48	27.081
2206.418	43.9067
2209.35	49.7201
2212.28	31.5214
2215.21	30.3107
2218.14	33.0879
2221.07	48.85363
2224	41.6077
2226.92	65.3503
2229.85	66.08149
2232.77	51.8016
2235.69	24.51067
2238.62	56.2089
2241.54	24.8963
2244.46	78.5729
2247.38	56.2393
2250.29	60.8953
2253.21	66.5411
2256.13	70.177
2259.04	29.80294
2261.95	45.4189
2264.87	37.0256
2267.78	64.6228
2270.69	47.2108
2273.6	43.7896
2276.51	19.3595
2279.41	12.9206
2282.32	85.473
2285.22	55.01696
2288.13	41.5526
2291.031	28.07995
2293.93	26.59936
2296.834	-16.8891
2299.73	68.6147
2302.63	43.1109
2305.53	29.5998
2308.43	45.0815
2311.32	22.556
2314.22	39.0237
2317.11	11.4847
2320.01	17.9391
2322.9	10.3873
2325.79	-20.1709
2328.676	-2.73531
2331.56	28.6944
2334.45	12.11835
2337.34	20.5367
2340.23	36.9497
2343.11	24.3577
2345.99	20.7603
2348.87	14.1579
2351.76	11.5509
2354.64	5.93952
2357.52	-18.6766
2360.39	3.70308
2363.27	-3.921376
2366.15	-1.54938
2369.02	22.8185
2371.9	0.182797
2374.77	8.54402
2377.64	33.9017
2380.51	9.25615
2383.38	25.60817
2386.25	24.957
2389.12	-13.6967
2391.99	31.6476
2394.853	58.9892
2397.72	1.32884
2400.58	21.6669
2403.45	35.0028
2406.31	40.3375
2409.17	36.6705
2412.03	44.0026
2414.89	30.3332
2417.74	24.6633
2420.6	1.99232
2423.46	42.3211
2426.31	28.6491
2429.16	48.9773
2432.02	3.30494
2434.87	35.6332
2437.72	49.9612
2440.57	34.29
2443.42	66.619
2446.27	112.949
2449.11	69.2803
2451.96	63.6121
2454.8	142.945
2457.65	132.2798
2460.49	98.6161
2463.33	101.954
2466.17	84.2937
2469.01	107.636
2471.85	58.9798
2474.69	66.3263
2477.53	58.6749
2480.36	54.0266
2483.19	18.381
2486.03	63.7385
2488.86	19.0987
2491.69	-6.53742
2494.52	24.8299
2497.35	19.2008
2500.18	35.5751
2503.01	3.95359
2505.84	20.3362
2508.66	47.723
2511.49	7.11408
2514.31	35.5097
2517.13	-2.09003
2519.95	23.3147
2522.78	19.72463
2525.59	5.13971
2528.41	-12.44
2531.23	30.9856
2534.05	41.4167
2536.86	15.8535
2539.68	36.2961
2542.491	27.7445
2545.3	32.1991
2548.12	40.6598
2550.93	11.1269
2553.74	45.60046
2556.54	44.0806
2559.35	62.5675
2562.16	54.0612
2564.96	49.562
2567.77	21.0698
2570.57	24.5849
2573.375	-6.892313
2576.177	79.63768
2578.978	51.1753
2581.78	56.7207
2584.58	41.274
2587.375	22.8352
2590.17	40.4046
2592.97	15.9824
2595.762	88.56839
2598.56	83.1628
2601.35	64.7658
2604.14	70.3777
2606.93	79.9982
2609.72	71.6277
2612.51	96.2661
2615.3	61.9139
2618.09	83.5708
2620.87	92.2369
2623.658	149.913
2626.44	145.598
2629.22	191.293
2632.01	202.998
2634.79	185.712
2637.57	201.436
2640.35	272.171
2643.13	276.916
2645.9	323.67
2648.68	324.436
2651.45	408.211
2654.23	442.997
2657	548.794
2659.77	625.601
2662.55	709.419
2665.32	820.248
2668.09	899.088
2670.85	1018.94
2673.62	1228.801
2676.39	1402.67
2679.15	1519.56
2681.92	1683.454
2684.68	1910.36
2687.45	2102.28
2690.21	2151.21
2692.968	2229.15
2695.73	2289.1
2698.49	2296.07
2701.24	2082.04
2704.001	1972.03
2706.76	1872.03
2709.51	1697.05
2712.27	1466.07
2715.02	1302.11
2717.772	1080.15
2720.52	999.214
2723.27	769.287
2726.02	725.372
2728.77	651.469
2731.52	553.578
2734.26	451.7
2737.01	380.834
2739.75	356.981
2742.5	309.14
2745.24	259.3111
2747.98	181.495
2750.72	207.692
2753.46	155.901
2756.2	174.1227
2758.939	108.357
2761.68	153.604
2764.41	87.8642
2767.15	115.1367
2769.88	92.422
2772.613	82.7199
2775.345	67.0307
2778.08	64.3542
2780.81	68.6905
2783.54	91.0396
2786.26	22.4015
2788.991	12.7763
2791.72	30.1638
2794.44	18.5641
2797.17	60.9773
2799.89	10.4033
2802.61	32.8421
2805.334	27.2934
2808.05	8.75779
2810.77	54.235
2813.49	14.725
2816.21	40.22768
2818.93	28.7432
2821.65	38.2714
2824.36	13.8121
2827.07	6.365757
2829.79	3.9321
2832.5	8.51114
2835.21	21.1028
2837.92	21.7067
2840.63	29.3235
2843.34	9.95299
2846.05	19.595
2848.75	38.249
2851.46	17.9159
2854.16	23.5952
2856.87	71.2865
2859.57	13.9905
2862.272	29.7069
2864.97	1.43505
2867.67	24.1759
2870.37	9.92839
2873.07	51.69355
2875.77	-34.5293
2878.46	21.2594
2881.16	69.0606
2883.85	42.8732
2886.55	15.6981
2889.24	20.5343
2891.93	34.3827
2894.62	43.2423
2897.311	20.114
2900	30.99679
2902.688	49.8915
2905.37	38.7971
2908.061	45.7145
2910.75	11.6428
2913.43	10.5827
2916.11	61.53315
2918.8	73.49472
2921.48	43.4678
2924.16	25.4511
2926.84	-7.55423
2929.52	78.4507
2932.19	41.4662
2934.87	74.4922
2937.55	32.5293
2940.22	59.5761
2942.89	58.6332
2945.57	36.7012
2948.24	43.7785
2950.91	9.86587
2953.58	56.9632
2956.25	73.07093
2958.92	36.1877
2961.59	12.3141
2964.25	56.45
2966.92	34.5951
2969.59	14.7504
2972.25	26.9142
2974.91	45.0869
2977.57	19.2688
2980.24	51.4593
2982.9	2.65873
2985.55	18.8667
2988.21	36.0833
2990.87	30.3082
2993.53	-6.45861
2996.18	23.7828
2998.84	18.03223
3001.49	-30.7105
3004.14	3.55473
3006.8	0.827553
3009.45	47.1079
3012.1	2.39574
3014.75	22.6909
3017.396	14.9931
3020.04	7.30247
3022.69	43.6187
3025.34	-13.0582
3027.98	29.2714
3030.63	29.6077
3033.27	13.9503
3035.91	16.2984
3038.55	49.6533
3041.19	24.0143
3043.83	12.3811
3046.47	-1.24632
3049.11	55.1309
3051.74	8.514329
3054.38	-17.0969
3057.01	36.297
3059.65	11.6951
3062.281	25.0989
3064.91	62.5073
3067.55	3.92037
3070.17	51.3369
3072.8	-9.24136
3075.43	36.1843
3078.06	32.6133
3080.69	47.0469
3083.31	12.4834
3085.94	17.92411
3088.563	8.36828
3091.19	22.8148
3093.81	6.26512
3096.43	23.7176
3099.05	0.173778
3101.67	10.6315
3104.29	58.0926
3106.91	-2.44394
3109.52	15.0208
3112.14	34.4874
3114.75	10.9568
3117.37	23.427
3119.98	40.8995
3122.59	17.3725
3125.21	38.8476
3127.82	35.3229
3130.427	-0.200219
3133.04	18.2767
3135.64	2.754194
3138.251	36.2328
3140.86	-2.289191
3143.46	20.189
3146.07	7.66794
3148.67	30.14587
3151.27	18.6233
3153.874	13.1002
3156.48	-7.42272
3159.08	7.05259
3161.67	6.52694
3164.27	-0.999946
3166.87	41.4727
3169.47	23.94301
3172.06	-6.58829
3174.66	-8.12147
3177.251	6.343451
3179.85	-23.193
3182.437	14.2674
3185.03	6.72539
3187.62	22.1809
3190.21	19.6335
3192.8	-11.9168
3195.38	12.5299
3197.97	8.97332
3200.56	-31.5866
3203.14	-0.149918
3205.73	7.28299
3208.31	11.712
3210.89	13.1371
3213.47	5.55802
3216.054	21.9747
3218.63	15.3869
3221.21	5.7946
3223.791	37.1975
3226.37	50.5956
3228.95	39.9887
3231.52	47.3765
3234.1	54.7592
3236.67	74.1363
3239.241	73.5071
3241.81	110.873
3244.38	108.2328
3246.96	129.587
3249.52	121.935
3252.09	108.276
3254.66	149.61
3257.23	94.939
3259.79	91.2609
3262.36	63.576
3264.92	47.8834
3267.49	35.1844
3270.05	34.4782
3272.61	37.7641
3275.17	17.0431
3277.73	13.3147
3280.29	5.57773
3282.85	7.83384
3285.41	32.08197
3287.96	2.32129
3290.52	-7.44678
3293.07	-6.223763
3295.63	4.99152
3298.18	17.19838
3300.73	-15.6041
3303.28	-0.414529
3305.83	27.7655
3308.38	-17.0626
3310.93	2.09954
3313.479	-13.7467
3316.03	-16.6027
3318.57	7.53265
3321.12	14.65801
3323.66	21.7739
3326.21	-2.1191
3328.75	11.9776
3331.29	22.0653
3333.83	-10.8573
3336.37	22.2101
3338.91	-3.731683
3341.448	-26.6841
3343.99	11.3534
3346.52	-4.61853
3349.06	-0.601299
3351.593	-13.5943
3354.13	6.40302
3356.66	15.3894
3359.19	4.36535
3361.72	-3.66911
3364.25	6.28599
3366.79	-8.76896
3369.31	-10.835
3371.84	24.08844
3374.37	2.00117
3376.9	10.9033
3379.42	20.7946
3381.95	0.675828
3384.47	-3.45427
3386.99	1.405
3389.52	22.2534
3392.04	-9.9089
3394.56	19.918
3397.08	36.7341
3399.6	4.53949
3402.12	29.3341
3404.63	11.1179
3407.15	18.8909
3409.66	10.6533
3412.179	24.40493
3414.69	51.146
3417.21	-8.12379
3419.72	16.5959
3422.23	19.3049
3424.74	16.0035
3427.25	7.69153
3429.76	29.3687
3432.27	24.0359
3434.77	37.6927
3437.28	31.3393
3439.79	7.97559
3442.29	43.6018
3444.79	8.21752
3447.3	27.8237
3449.8	42.4198
3452.3	28.0062
3454.8	31.58252
3457.3	21.1495
3459.8	50.707
3462.3	21.2547
3464.79	26.7935
3467.29	48.3231
3469.79	22.8436
3472.28	20.3548
3474.77	12.8576
3477.27	1.3513
3479.76	39.8368
3482.25	10.314
3484.741	-1.21737
3487.23	17.2435
3489.72	20.6961
3492.21	14.1413
3494.69	31.5787
3497.18	34.0089
3499.666	19.4317
3502.15	17.8478
3504.63	17.25675
3507.12	13.6594
3509.6	2.05541
3512.08	42.4455
3514.56	14.8293
3517.04	22.2074
3519.521	41.5803
3522	22.9477
3524.48	-6.68976
3526.95	20.6678
3529.43	16.0209
3531.9	14.37
3534.38	14.7149
3536.85	31.056
3539.32	5.39382
3541.79	33.7287
3544.26	32.0605
3546.73	22.3898
3549.2	59.7169
3551.67	16.0422
3554.14	36.3659
3556.61	37.6882
3559.07	29.0097
3561.54	4.3306
3564	16.6513
3566.46	6.97231
3568.93	23.2937
3571.39	14.6159
3573.85	40.9394
3576.31	29.2646
3578.77	36.5918
3581.23	-1.07858
3583.68	9.25392
3586.14	18.5897
3588.6	28.9292
3591.052	36.2728
3593.51	21.621
3595.96	18.9742
3598.41	3.33292
3600.865	37.6976
3603.32	27.0686
3605.77	14.4466
3608.22	23.8319
3610.665	27.2251
3613.11	47.6265
3615.56	28.037
3618.01	18.4569
3620.45	23.8868
3622.896	28.3271
3625.34	11.7785
3627.78	24.2412
3630.22	14.7164
3632.67	14.2042
3635.11	22.7054
3637.55	18.2202
3639.99	14.7498
3642.42	23.2945
3644.86	27.8545
3647.3	14.4313
3649.73	19.0251
3652.17	15.63612
3654.6	0.265761
3657.04	43.9144
3659.47	-5.41772
3661.9	17.2709