File: data/SEM_Raman_Data/KZPd_170928-5/20170926-5 on SiO2_21.txt
672.793	1272.67
676.3017	1064.965
679.809	907.655
683.316	954.752
686.818	721.242
690.322	764.18
693.824	557.55
697.325	502.361
700.825	257.622
704.321	353.316
707.8175	267.497
711.313	97.1507
714.807	189.284
718.3	155.905
721.789	-4.91632e-05
725.279	36.6184
728.768	86.74646
732.255	51.3908
735.7392	19.54
739.224	139.24
742.707	45.4774
746.187	77.2413
749.668	47.5752
753.147	75.4678
756.623	183.907
760.1	224.936
763.575	239.5424
767.047	224.716
770.519	274.497
773.9906	343.875
777.4585	405.84
780.927	400.429
784.394	543.634
787.858	437.443
791.323	575.896
794.784	552.964
798.246	631.687
801.705	713.038
805.164	733.053
808.6217	896.723
812.076	830.038
815.532	911.033
818.984	938.685
822.436	1021.03
825.885	929.035
829.335	1089.74
832.782	868.128
836.229	814.224
839.673	834.006
843.118	861.5069
846.559	790.705
849.999	736.619
853.44	788.264
856.878	753.621
860.316	789.719
863.75	787.5376
867.186	835.105
870.618	759.403
874.049	848.446
877.48	880.251
880.909	909.798
884.335	962.104
887.763	953.183
891.187	979.017
894.612	917.632
898.034	1002.01
901.454	1179.16
904.873	1073.1
908.293	1190.83
911.709	1253.34
915.124	1311.65
918.54	1386.756
921.953	1674.65
925.364	1923.35
928.774	2498.86
932.184	3804.19
935.592	5526.31
938.998	7414.26
942.402	9565.02
945.8078	9768.62
949.21	9560.03
952.611	9584.27
956.01	9501.34
959.409	9603.24
962.805	9505.98
966.203	9760.57
969.597	9723.999
972.99	9745.27
976.3822	9900.39
979.773	9746.36
983.162	9702.18
986.55	9263.86
989.936	7916.4
993.324	6025.81
996.708	4532.07
1000.09	3781.2
1003.47	3189.2
1006.852	2739.07
1010.23	2373.81
1013.61	1985.43
1016.98	1818.93
1020.36	1528.31
1023.73	1350.57
1027.11	1089.71
1030.48	733.743
1033.85	632.663
1037.22	543.474
1040.58	279.177
1043.95	252.776
1047.31	211.271
1050.68	178.665
1054.04	130.96
1057.4	140.157
1060.76	15.2524
1064.12	88.2599
1067.47	42.1753
1070.83	0.000463554
1074.18	24.7367
1077.54	36.3855
1080.89	23.9496
1084.24	16.4295
1087.59	116.821
1090.937	110.138
1094.28	48.3759
1097.63	48.5364
1100.97	142.6205
1104.32	105.63
1107.66	138.5601
1111	240.424
1114.34	236.218
1117.68	263.942
1121.01	302.594
1124.35	295.184
1127.68	309.708
1131.014	341.169
1134.344	331.561
1137.67	312.897
1141.004	388.173
1144.33	259.384
1147.66	291.542
1150.98	313.643
1154.31	277.6832
1157.63	220.673
1160.95	251.609
1164.27	316.4877
1167.59	273.319
1170.91	190.0997
1174.22	388.825
1177.54	184.5071
1180.85	211.1358
1184.16	142.722
1187.47	208.262
1190.78	269.752
1194.09	201.202
1197.4	230.6035
1200.71	269.9668
1204.01	214.283
1207.31	225.563
1210.615	338.7973
1213.92	249.996
1217.22	257.152
1220.52	237.2733
1223.81	291.353
1227.11	331.399
1230.4	305.405
1233.7	293.379
1236.99	348.313
1240.28	298.214
1243.57	397.084
1246.86	389.917
1250.15	458.721
1253.43	509.4884
1256.71	433.224
1259.999	496.933
1263.28	497.607
1266.56	586.255
1269.84	684.8692
1273.12	693.454
1276.4	671.014
1279.67	754.541
1282.95	846.041
1286.22	865.513
1289.49	981.962
1292.76	985.381
1296.03	1062.77
1299.304	1161.14
1302.57	1429.48
1305.84	1472.8
1309.1	1807.09
1312.37	2100.36
1315.63	2403.6
1318.89	2880.82
1322.15	3573.01
1325.41	4531.18
1328.67	5852.34
1331.92	7739.46
1335.18	10341.563
1338.43	13181.644
1341.68	15672.702
1344.93	17344.738
1348.18	16922.754
1351.43	15557.751
1354.68	13181.724
1357.93	10486.675
1361.17	8488.61
1364.42	6542.52
1367.66	5214.41
1370.9	4196.28
1374.14	3481.13
1377.38	2707.96
1380.616	2488.77
1383.85	2047.56
1387.09	1832.33
1390.322	1730.08
1393.55	1576.81
1396.79	1290.53
1400.02	1297.22
1403.25	1151.9
1406.47	1131.55
1409.7	997.191
1412.93	953.81
1416.15	895.411
1419.38	842.994
1422.6	781.558
1425.82	771.104
1429.04	759.6319
1432.25	786.138
1435.47	727.629
1438.69	719.102
1441.9	682.557
1445.12	695.9942
1448.33	830.413
1451.54	648.811
1454.75	668.194
1457.96	683.559
1461.17	738.906
1464.37	662.235
1467.58	638.543
1470.78	615.836
1473.98	704.112
1477.19	599.3689
1480.39	658.605
1483.58	669.826
1486.78	725.03
1489.98	718.215
1493.17	704.379
1496.37	609.529
1499.563	755.66
1502.75	735.77
1505.94	706.865
1509.14	734.942
1512.32	800.997
1515.51	749.037
1518.7	765.06
1521.88	794.06
1525.06	812.045
1528.25	846.009
1531.43	831.957
1534.61	879.887
1537.79	907.795
1540.96	946.687
1544.14	952.558
1547.32	938.412
1550.489	1093.25
1553.66	1198.06
1556.83	1313.86
1560	1331.64
1563.17	1577.39
1566.34	1755.13
1569.51	2174.85
1572.675	2530.55
1575.84	3238.23
1579	3861.9
1582.16	4581.54
1585.32	5500.16
1588.49	6179.76
1591.64	6708.35
1594.8	6637.91
1597.96	5772.45
1601.11	4523.97
1604.27	3714.48
1607.42	3036.96
1610.57	2793.42
1613.72	2673.87
1616.871	2825.29
1620.02	3213.69
1623.17	3693.07
1626.31	3778.43
1629.46	3901.77
1632.6	3170.09
1635.74	2411.38
1638.88	1752.66
1642.02	1272.91
1645.16	1035.15
1648.3	786.36
1651.44	649.5509
1654.57	641.72
1657.7	496.868
1660.84	421.998
1663.97	448.102
1667.1	342.185
1670.23	318.247
1673.36	274.286
1676.48	246.304
1679.61	208.302
1682.74	129.276
1685.86	130.227
1688.98	151.157
1692.1	83.0636
1695.22	76.9481
1698.34	127.81
1701.46	31.6498
1704.58	40.4668
1707.69	63.2612
1710.81	92.033
1713.92	49.7819
1717.03	52.508
1720.14	46.2112
1723.25	11.8914
1726.36	41.5487
1729.47	14.1828
1732.58	35.7937
1735.68	13.3815
1738.78	64.946
1741.89	77.4871
1744.99	98.0048
1748.09	78.4992
1751.19	60.97
1754.29	-0.582738
1757.39	55.84082
1760.48	11.2384
1763.58	0.614833
1766.67	42.9674
1769.76	100.296
1772.85	79.6012
1775.94	121.882
1779.03	105.137
1782.12	68.3703
1785.21	48.5796
1788.29	99.7648
1791.379	65.9259
1794.46	114.061
1797.54	168.174
1800.63	174.262
1803.7	94.3247
1806.78	158.3651
1809.86	64.3811
1812.94	86.3731
1816.01	110.338
1819.09	66.2816
1822.16	62.2004
1825.23	97.0927
1828.31	146.963
1831.38	108.809
1834.44	126.628
1837.51	184.425
1840.58	140.195
1843.64	142.943
1846.71	107.667
1849.77	77.36412
1852.83	138.039
1855.89	114.687
1858.95	144.313
1862.01	108.912
1865.07	99.4894
1868.125	173.04
1871.18	123.568
1874.23	83.06971
1877.29	110.549
1880.34	106.002
1883.39	127.432
1886.44	95.8363
1889.49	124.218
1892.54	150.573
1895.58	223.906
1898.63	42.21312
1901.67	154.496
1904.72	137.756
1907.76	81.9899
1910.8	115.201
1913.84	125.3872
1916.88	128.5488
1919.91	135.688
1922.95	100.801
1925.98	114.891
1929.02	102.958
1932.052	54.9991
1935.08	70.01664
1938.11	128.01
1941.14	102.982
1944.17	119.928
1947.2	116.85
1950.23	94.7486
1953.25	114.625
1956.28	109.477
1959.3	177.304
1962.32	139.109
1965.34	110.89
1968.36	108.649
1971.38	123.3832
1974.4	69.09436
1977.41	142.782
1980.43	97.447
1983.44	111.089
1986.46	132.7076
1989.469	122.305
1992.48	145.878
1995.49	129.428
1998.498	110.956
2001.51	110.461
2004.512	110.943
2007.52	118.403
2010.52	96.8411
2013.52	109.2564
2016.527	96.6496
2019.53	125.021
2022.528	153.37
2025.527	158.6967
2028.52	76.0019
2031.52	96.2852
2034.52	62.547
2037.51	81.7871
2040.51	43.0058
2043.5	85.2031
2046.49	46.37904
2049.478	77.53257
2052.47	77.6662
2055.46	106.779
2058.44	84.8706
2061.43	89.9416
2064.41	98.9919
2067.4	44.0215
2070.38	84.0296
2073.36	109.018
2076.34	100.987
2079.32	-0.0645411
2082.3	113.864
2085.28	84.7712
2088.25	63.6598
2091.23	89.5288
2094.2	106.3771
2097.17	153.207
2100.146	146.018
2103.12	97.8089
2106.09	62.5801
2109.05	91.3335
2112.02	70.0679
2114.99	117.783
2117.95	137.48
2120.92	60.1583
2123.88	92.8176
2126.844	71.4595
2129.804	83.0824
2132.76	95.6884
2135.72	67.2765
2138.68	105.846
2141.64	31.3988
2144.59	50.9333
2147.55	71.4515
2150.5	59.9515
2153.46	81.43544
2156.41	58.9015
2159.36	93.35183
2162.31	29.7846
2165.25	25.2017
2168.2	53.6017
2171.15	48.9863
2174.09	80.354
2177.04	28.7067
2179.98	74.04274
2182.92	17.3639
2185.86	25.6689
2188.8	57.9585
2191.74	38.23381
2194.68	70.4932
2197.61	42.7378
2200.551	50.9682
2203.48	56.1834
2206.418	67.3842
2209.35	12.5713
2212.28	8.743639
2215.21	36.9019
2218.14	49.047
2221.07	52.17778
2224	115.295
2226.92	67.3988
2229.85	9.489996
2232.77	37.5675
2235.69	98.6321
2238.62	112.684
2241.54	82.7229
2244.46	37.75016
2247.38	92.7645
2250.29	142.767
2253.21	73.7569
2256.13	95.7352
2259.04	82.7018
2261.95	96.6575
2264.87	96.6012
2267.78	134.534
2270.69	71.455
2273.6	90.3655
2276.51	75.2653
2279.41	134.154
2282.32	63.0331
2285.22	91.9015
2288.13	86.7598
2291.031	154.608
2293.93	75.4465
2296.834	136.275
2299.73	72.0948
2302.63	114.905
2305.53	80.7056
2308.43	114.497
2311.32	99.2804
2314.22	89.0547
2317.11	69.8204
2320.01	48.5777
2322.9	71.3264
2325.79	67.0674
2328.676	50.8005
2331.56	45.5259
2334.45	92.2437
2337.34	20.954
2340.23	114.657
2343.11	50.3525
2345.99	0.041469
2348.87	40.7236
2351.76	11.3991
2354.64	18.0677
2357.52	78.7303
2360.39	66.3868
2363.27	147.037
2366.15	50.6814
2369.02	97.3202
2371.9	51.95343
2374.77	30.5809
2377.64	106.2035
2380.51	122.821
2383.38	118.433
2386.25	116.041
2389.12	114.644
2391.99	155.242
2394.853	121.837
2397.72	173.427
2400.58	108.012
2403.45	106.594
2406.31	141.172
2409.17	198.747
2412.03	145.3183
2414.89	186.886
2417.74	139.451
2420.6	150.013
2423.46	159.572
2426.31	157.128
2429.16	175.682
2432.02	188.233
2434.87	224.782
2437.72	249.329
2440.57	298.873
2443.42	318.417
2446.27	358.958
2449.11	328.497
2451.96	372.036
2454.8	441.573
2457.65	515.109
2460.49	511.6438
2463.33	476.178
2466.17	528.711
2469.01	448.244
2471.85	514.776
2474.69	449.308
2477.53	412.84
2480.36	383.371
2483.19	381.903
2486.03	382.435
2488.86	305.968
2491.69	330.5
2494.52	321.034
2497.35	282.568
2500.18	284.103
2503.01	290.639
2505.84	299.176
2508.66	304.714
2511.49	287.254
2514.31	246.795
2517.13	229.337
2519.95	251.882
2522.78	239.4283
2525.59	280.976
2528.41	251.527
2531.23	314.079
2534.05	233.634
2536.86	286.191
2539.68	289.751
2542.491	265.313
2545.3	230.878
2548.12	254.4465
2550.93	294.017
2553.74	327.592
2556.54	311.169
2559.35	342.75
2562.16	355.334
2564.96	342.9212
2567.77	320.512
2570.57	393.107
2573.375	353.706
2576.177	367.308
2578.978	380.9151
2581.78	391.526
2584.58	465.1409
2587.375	385.76
2590.17	492.384
2592.97	502.012
2595.762	423.645
2598.56	525.282
2601.35	543.925
2604.14	545.572
2606.93	625.224
2609.72	661.881
2612.51	708.543
2615.3	714.21
2618.09	774.883
2620.87	815.561
2623.658	977.245
2626.44	1039.934
2629.22	1148.63
2632.01	1194.33
2634.79	1348.04
2637.57	1554.75
2640.35	1677.46
2643.13	1958.19
2645.9	2236.92
2648.68	2506.65
2651.45	2915.397
2654.23	3316.15
2657	3728.9
2659.77	4471.66
2662.55	5037.43
2665.32	5680.2
2668.09	6571.98
2670.85	7143.77
2673.62	8124.56
2676.39	8572.37
2679.15	9104.17
2681.92	9497.99
2684.68	9629.81
2687.45	9688.64
2690.21	8933.47
2692.968	8373.31
2695.73	7656.16
2698.49	6968.02
2701.24	6199.88
2704.001	5484.75
2706.76	4700.63
2709.51	4067.52
2712.27	3573.41
2715.02	3115.31
2717.772	2605.22
2720.52	2362.13
2723.27	2019.06
2726.02	1783.99
2728.77	1514.92
2731.52	1389.87
2734.26	1202.82
2737.01	1108.78
2739.75	1017.751
2742.5	920.727
2745.24	804.71
2747.98	758.701
2750.72	661.7
2753.46	647.707
2756.2	550.722
2758.939	548.745
2761.68	538.775
2764.41	469.813
2767.15	436.859
2769.88	414.913
2772.613	409.974
2775.345	341.0437
2778.08	370.121
2780.81	356.206
2783.54	340.3
2786.26	350.401
2788.991	334.51
2791.72	310.627
2794.44	277.752
2797.17	303.884
2799.89	295.025
2802.61	294.174
2805.334	215.33
2808.05	224.4939
2810.77	250.666
2813.49	249.846
2816.21	290.034
2818.93	270.23
2821.65	315.433
2824.36	262.644
2827.07	315.863
2829.79	316.09
2832.5	322.325
2835.21	263.568
2837.92	277.817
2840.63	254.075
2843.34	333.34
2846.05	312.614
2848.75	287.894
2851.46	286.182
2854.16	290.478
2856.87	309.781
2859.57	281.092
2862.272	355.4101
2864.97	318.735
2867.67	347.068
2870.37	363.4082
2873.07	287.7562
2875.77	322.111
2878.46	328.473
2881.16	339.843
2883.85	387.219
2886.55	397.602
2889.24	353.993
2891.93	417.39
2894.62	421.795
2897.311	412.206
2900	477.624
2902.688	495.05
2905.37	526.4812
2908.061	590.9201
2910.75	591.365
2913.43	645.8172
2916.11	676.275
2918.8	716.74
2921.48	770.211
2924.16	797.688
2926.84	888.173
2929.52	848.663
2932.19	856.159
2934.87	906.661
2937.55	904.169
2940.22	945.684
2942.89	911.203
2945.57	959.73
2948.24	929.262
2950.91	930.799
2953.58	818.342
2956.25	819.891
2958.92	739.445
2961.59	717.005
2964.25	621.569
2966.92	562.139
2969.59	566.715
2972.25	444.296
2974.91	514.881
2977.57	421.471
2980.24	409.066
2982.9	340.666
2985.55	299.27
2988.21	300.879
2990.87	284.493
2993.53	190.1111
2996.18	251.7336
2998.84	208.36
3001.49	149.991
3004.14	178.626
3006.8	170.265
3009.45	168.908
3012.1	128.555
3014.75	115.205
3017.396	77.85891
3020.04	116.516
3022.69	67.1775
3025.34	124.842
3027.98	119.5093
3030.63	119.18
3033.27	69.8538
3035.91	65.5296
3038.55	65.20916
3041.19	136.892
3043.83	44.5765
3046.47	130.264
3049.11	105.953
3051.74	97.6454
3054.38	108.34
3057.01	42.0368
3059.65	71.7346
3062.281	105.435
3064.91	112.138
3067.55	74.8422
3070.17	55.547
3072.8	101.254
3075.43	67.9631
3078.06	54.6722
3080.69	56.3836
3083.31	73.095
3085.94	84.8083
3088.563	30.5225
3091.19	88.2365
3093.81	127.952
3096.43	62.6671
3099.05	62.3837
3101.67	80.09948
3104.29	58.8165
3106.91	65.53363
3109.52	51.2497
3112.14	30.9656
3114.75	59.6823
3117.37	27.3978
3119.98	34.1135
3122.59	65.8277
3125.21	62.5423
3127.82	63.255
3130.427	111.968
3133.04	45.6784
3135.64	41.3881
3138.251	69.09716
3140.86	38.804
3143.46	107.509
3146.07	66.21405
3148.67	-0.0839087
3151.27	83.6162
3153.874	69.3143
3156.48	60.0113
3159.08	71.705
3161.67	77.3966
3164.27	69.0856
3166.87	59.7731
3169.47	46.45686
3172.06	72.1379
3174.66	111.816
3177.251	102.491
3179.85	95.1642
3182.437	120.8328
3185.03	77.4982
3187.62	114.16
3190.21	59.8184
3192.8	104.473
3195.38	81.1237
3197.97	79.7704
3200.56	139.413
3203.14	79.05191
3205.73	101.686
3208.31	48.3161
3210.89	115.942
3213.47	117.5623
3216.054	144.178
3218.63	175.79
3221.21	116.396
3223.791	166.997
3226.37	200.593
3228.95	288.1839
3231.52	256.769
3234.1	235.349
3236.67	345.923
3239.241	379.491
3241.81	456.054
3244.38	485.61
3246.96	607.161
3249.52	622.706
3252.09	630.2439
3254.66	653.7749
3257.23	539.3
3259.79	449.819
3262.36	420.332
3264.92	340.836
3267.49	276.335
3270.05	236.826
3272.61	212.3101
3275.17	152.787
3277.73	140.258
3280.29	110.719
3282.85	82.17469
3285.41	106.6224
3287.96	73.0616
3290.52	60.4938
3293.07	67.9175
3295.63	48.334
3298.18	57.7426
3300.73	63.1421
3303.28	61.5343
3305.83	49.9173
3308.38	28.2928
3310.93	74.659
3313.479	33.0174
3316.03	61.3665
3318.57	68.7076
3321.12	57.0392
3323.66	18.3618
3326.21	23.6763
3328.75	32.9809
3331.29	36.2772
3333.83	25.5636
3336.37	6.84068
3338.91	27.1092
3341.448	14.3675
3343.99	14.6164
3346.52	43.8565
3349.06	38.0862
3351.593	27.3063
3354.13	15.5173
3356.66	24.7178
3359.19	-0.0916852
3361.72	8.08899
3364.25	52.2597
3366.79	17.421
3369.31	8.57155
3371.84	7.71198
3374.37	50.8421
3376.9	52.96207
3379.42	28.0716
3381.95	65.1715
3384.47	67.2603
3386.99	29.3387
3389.52	43.4065
3392.04	0.46392
3394.56	14.5107
3397.08	28.5468
3399.6	16.5724
3402.12	78.5872
3404.63	54.5912
3407.15	62.5846
3409.66	44.5672
3412.179	67.539
3414.69	82.5
3417.21	17.4501
3419.72	77.3894
3422.23	42.31768
3424.74	52.2352
3427.25	51.1417
3429.76	55.0368
3432.27	64.9216
3434.77	43.7953
3437.28	55.6581
3439.79	40.5099
3442.29	47.3507
3444.79	36.1802
3447.3	63.99921
3449.8	61.80722
3452.3	79.6043
3454.8	22.39
3457.3	38.1652
3459.8	62.9295
3462.3	44.6825
3464.79	64.4251
3467.29	47.1568
3469.79	75.8777
3472.28	47.5874
3474.77	24.2868
3477.27	-0.0250778
3479.76	11.6528
3482.25	67.3201
3484.741	49.9763
3487.23	36.6223
3489.72	23.2575
3492.21	87.8824
3494.69	30.4966
3497.18	61.1008
3499.666	39.6943
3502.15	42.2779
3504.63	70.8509
3507.12	54.4141
3509.6	77.96698
3512.08	44.5101
3514.56	3.04297
3517.04	14.566
3519.521	31.0795
3522	54.583
3524.48	63.0772
3526.95	62.5616
3529.43	24.0366
3531.9	45.5024
3534.38	61.9588
3536.85	18.406
3539.32	33.8442
3541.79	42.2737
3544.26	61.6941
3546.73	-0.89422
3549.2	60.5089
3551.67	43.9037
3554.14	68.2899
3556.61	34.66795
3559.07	68.0378
3561.54	12.3998
3564	16.7538
3566.46	58.1004
3568.93	40.4392
3571.39	90.7707
3573.85	48.0948
3576.31	48.4118
3578.77	36.7219
3581.23	40.0252
3583.68	48.3218
3586.14	12.612
3588.6	52.8959
3591.052	64.1737
3593.51	47.4455
3595.96	10.7115
3598.41	93.972
3600.865	21.2271
3603.32	41.477
3605.77	42.7219
3608.22	31.962
3610.665	9.19754
3613.11	60.4285
3615.56	54.6555
3618.01	39.8785
3620.45	43.0978
3622.896	21.3135
3625.34	81.526
3627.78	24.73527
3630.22	23.9419
3632.67	5.145884
3635.11	11.3476
3637.55	4.54705
3639.99	-1.25517
3642.42	16.941
3644.86	15.1358
3647.3	-2.67035
3649.73	8.52271
3652.17	21.7152
3654.6	31.9075
3657.04	28.0999
3659.47	7.29248
3661.9	22.4858