File: data/SEM_Raman_Data/KZPd_170821-2/Sample spectrum KZPd_170821-2.txt
672.793	8.22262
676.3017	5.5065
679.809	5.78446
683.316	4.6816
686.818	3.19785
690.322	3.20861
693.824	1.33881
697.325	0.588553
700.825	3.58291
704.321	0.07183966
707.8175	1.1807
711.313	-0.0905667
714.807	1.13312
718.3	1.85185
721.789	2.31558
725.279	0.774638
728.768	0.728972
732.255	3.928659
735.7392	1.62367
739.224	2.93931
742.707	1.75053
746.187	2.30731
749.668	3.85992
753.147	3.28334
756.623	5.70254
760.1	4.74278
763.575	5.52904
767.047	5.0613
770.519	7.4648
773.9906	5.98952
777.4585	8.88544
780.927	9.5278
784.394	7.66657
787.858	8.80174
791.323	11.1835
794.784	8.56186
798.246	9.43693
801.705	12.68365
805.164	10.5522
808.6217	13.4176
812.076	15.4049
815.532	16.1392
818.984	17.7454
822.436	14.3488
825.885	14.9492
829.335	16.6719
832.782	15.89174
836.229	13.4839
839.673	14.9484
843.118	14.1603
846.559	13.6196
849.999	12.7015
853.44	12.0308
856.878	13.3578
860.316	15.9324
863.75	16.37966
867.186	14.4497
870.618	16.1425
874.049	17.083
877.48	18.0215
880.909	18.7079
884.335	17.0172
887.763	15.6996
891.187	17.2549
894.612	17.1834
898.034	17.3599
901.454	18.1597
904.873	15.5826
908.293	18.0038
911.709	19.5482
915.124	19.96595
918.54	21.2571
921.953	25.2966
925.364	33.9595
928.774	52.3709
932.184	75.9058
935.592	108.064
938.998	131.471
942.402	130.252
945.8078	132.406
949.21	127.059
952.611	131.96
956.01	130.111
959.409	130.51
962.805	128.783
966.203	132.929
969.597	132.075
972.99	131.469
976.3822	136.863
979.773	129.13
983.162	131.021
986.55	112.286
989.936	85.4257
993.324	61.564
996.708	49.2013
1000.09	44.5878
1003.47	42.4734
1006.852	31.6081
1010.23	31.117
1013.61	28.6251
1016.98	24.38237
1020.36	22.88892
1023.73	19.0197
1027.11	18.7748
1030.48	13.0292
1033.85	12.908
1037.22	9.16108
1040.58	5.66354
1043.95	5.54039
1047.31	4.04166
1050.68	4.41736
1054.04	3.04251
1057.4	2.16713
1060.76	2.416239
1064.12	1.91486
1067.47	1.913
1070.83	2.91068
1074.18	2.28292
1077.54	3.154743
1080.89	1.02616
1084.24	2.77218
1087.59	3.01783
1090.937	2.26312
1094.28	2.00806
1097.63	1.00268
1100.97	2.49698
1104.32	2.74099
1107.66	1.109707
1111	0.228153
1114.34	2.72134
1117.68	1.58929
1121.01	0.832002
1124.35	2.1995
1127.68	1.06678
1131.014	2.05887
1134.344	1.80079
1137.67	1.292528
1141.004	1.65911
1144.33	0.6505447
1147.66	0.891839
1150.98	0.383007
1154.31	1.49906
1157.63	0.115009
1160.95	3.35586
1164.27	1.47163
1167.59	1.58731
1170.91	0.202931
1174.22	1.0685
1177.54	0.8090046
1180.85	0.549478
1184.16	0.414913
1187.47	0.905324
1190.78	1.895722
1194.09	1.01111
1197.4	1.62649
1200.71	0.491882
1204.01	0.607288
1207.31	0.847709
1210.615	1.08816
1213.92	0.328641
1217.22	1.44417
1220.52	-0.1902691
1223.81	0.0503525
1227.11	1.29103
1230.4	1.53177
1233.7	1.14757
1236.99	2.26346
1240.28	-0.495578
1243.57	0.745464
1246.86	0.4866
1250.15	0.477824
1253.43	1.594151
1256.71	0.83558
1259.999	1.20211
1263.28	0.943757
1266.56	2.31051
1269.84	1.17739
1273.12	1.16939
1276.4	2.66151
1279.67	1.40376
1282.95	0.146149
1286.22	2.13867
1289.49	1.63132
1292.76	-0.375881
1296.03	1.742059
1299.304	1.61014
1302.57	2.47837
1305.84	2.09676
1309.1	0.9652952
1312.37	2.20898
1315.63	0.7028296
1318.89	0.9468351
1322.15	0.941001
1325.41	3.31033
1328.67	1.05481
1331.92	1.92447
1335.18	2.66929
1338.43	4.03928
1341.68	3.65943
1344.93	3.77976
1348.18	2.65025
1351.43	2.77091
1354.68	2.64175
1357.93	3.51276
1361.17	1.13394
1364.42	2.25529
1367.66	2.00182
1370.9	0.998522
1374.14	3.3704
1377.38	2.99245
1380.616	3.11467
1383.85	2.98707
1387.09	2.48464
1390.322	2.85738
1393.55	1.6053
1396.79	1.3534
1400.02	0.60166
1403.25	1.3501
1406.47	1.22371
1409.7	1.84749
1412.93	0.0964382
1416.15	0.720559
1419.38	2.46985
1422.6	2.09431
1425.82	0.843933
1429.04	1.59373
1432.25	2.09368
1435.47	1.3438
1438.69	1.34409
1441.9	2.09454
1445.12	1.47015
1448.33	1.22091
1451.54	1.47184
1454.75	3.22292
1457.96	2.84916
1461.17	1.35056
1464.37	2.227103
1467.58	2.4788
1470.78	0.730647
1473.98	0.732642
1477.19	1.23478
1480.39	0.11207
1483.58	1.1145
1486.78	2.11707
1489.98	2.49478
1493.17	1.49763
1496.37	1.37562
1499.563	2.37873
1502.75	3.00698
1505.94	1.26037
1509.14	2.13888
1512.32	1.89251
1515.51	3.02127
1518.7	2.90016
1521.88	0.654161
1525.06	2.65828
1528.25	2.03752
1531.43	3.16688
1534.61	5.42134
1537.79	4.42592
1540.96	4.5556
1544.14	5.43539
1547.32	7.69028
1550.489	7.320272
1553.66	7.450366
1556.83	13.4556
1560	12.83584
1563.17	18.0912
1566.34	25.7217
1569.51	41.4772
1572.675	56.73288
1575.84	77.6136
1579	96.2444
1582.16	116.625
1585.32	111.631
1588.49	83.7623
1591.64	59.8934
1594.8	36.89957
1597.96	27.1558
1601.11	17.0371
1604.27	14.1685
1607.42	13.1749
1610.57	8.68141
1613.72	8.31296
1616.871	6.19456
1620.02	7.32621
1623.17	4.33291
1626.31	3.21465
1629.46	5.09644
1632.6	2.47828
1635.74	3.86015
1638.88	3.61705
1642.02	1.62399
1645.16	1.88097
1648.3	2.13798
1651.44	3.02001
1654.57	1.27707
1657.7	2.28415
1660.84	2.16626
1663.97	0.548382
1667.1	0.930521
1670.23	0.187675
1673.36	0.944842
1676.48	1.45202
1679.61	0.959208
1682.74	2.5914
1685.86	1.598593
1688.98	0.605789
1692.1	1.48798
1695.22	0.245176
1698.34	0.252364
1701.46	2.13454
1704.58	1.51672
1707.69	2.14888
1710.81	1.03102
1713.92	1.03815
1717.03	0.170268
1720.14	1.67736
1723.25	0.559436
1726.36	-0.1835143
1729.47	0.0735102
1732.58	0.205507
1735.68	0.962475
1738.78	1.59441
1741.89	0.851315
1744.99	1.73318
1748.09	1.36502
1751.19	0.246809
1754.29	-0.996439
1757.39	1.135271
1760.48	0.641933
1763.58	1.14855
1766.67	-0.344875
1769.76	0.2866478
1772.85	0.543119
1775.94	1.799538
1779.03	0.180899
1782.12	1.06221
1785.21	0.193457
1788.29	0.824647
1791.379	0.955777
1794.46	0.71184
1797.54	2.09284
1800.63	1.97378
1803.7	1.604646
1806.78	0.860447
1809.86	2.74118
1812.94	0.246837
1816.01	1.62742
1819.09	0.00793075
1822.16	1.63837
1825.23	2.01872
1828.31	1.149
1831.38	2.404201
1834.44	0.784317
1837.51	2.66435
1840.58	1.5443
1843.64	2.79917
1846.71	2.67895
1849.77	2.05864
1852.83	3.56325
1855.89	4.56776
1858.95	4.44719
1862.01	2.32652
1865.07	5.08076
1868.125	1.9599
1871.18	2.46396
1874.23	3.21791
1877.29	1.34677
1880.34	2.475528
1883.39	1.60419
1886.44	2.10775
1889.49	0.986214
1892.54	3.364573
1895.58	2.11783
1898.63	1.87099
1901.67	-0.250964
1904.72	0.376984
1907.76	1.62982
1910.8	0.507561
1913.84	0.760189
1916.88	2.26271
1919.91	2.14012
1922.95	2.26743
1925.98	0.769623
1929.02	1.52171
1932.052	1.89869
1935.08	1.77555
1938.11	1.4023
1941.14	2.77895
1944.17	1.78047
1947.2	3.03189
1950.23	1.15819
1953.25	-0.0906146
1956.28	2.28546
1959.3	1.91142
1962.32	1.66227
1965.34	2.038
1968.36	2.53862
1971.38	1.53913
1974.4	4.16451
1977.41	3.41478
1980.43	2.16494
1983.44	3.66498
1986.46	2.4149
1989.469	1.53971
1992.48	3.9144
1995.49	1.28897
1998.498	1.66343
2001.51	1.66277
2004.512	2.03699
2007.52	3.2861
2010.52	2.66009
2013.52	1.53397
2016.527	1.78273
2019.53	1.03137
2022.528	3.15489
2025.527	1.0283
2028.52	2.651597
2031.52	0.899775
2034.52	1.27284
2037.51	3.52078
2040.51	1.39362
2043.5	1.51633
2046.49	1.38894
2049.478	1.26143
2052.47	1.3838
2055.46	0.131061
2058.44	2.00321
2061.43	1.00024
2064.41	1.74717
2067.4	0.368976
2070.38	1.86568
2073.36	2.48726
2076.34	0.98374
2079.32	-0.2698938
2082.3	-0.273637
2085.28	0.472512
2088.25	2.21855
2091.23	0.839482
2094.2	0.335307
2097.17	1.58102
2100.146	1.70163
2103.12	0.947138
2106.09	0.8175391
2109.05	1.06283
2112.02	2.05802
2114.99	2.80311
2117.95	1.6731
2120.92	1.79298
2123.88	0.6627695
2126.844	0.9074524
2129.804	0.527039
2132.76	0.396524
2135.72	1.76591
2138.68	1.6352
2141.64	0.754397
2144.59	0.748499
2147.55	1.2425
2150.5	1.11142
2153.46	1.10523
2156.41	1.72396
2159.36	1.2176
2162.31	1.58615
2165.25	0.579604
2168.2	2.69798
2171.15	1.31626
2174.09	0.809454
2177.04	2.67756
2179.98	0.545593
2182.92	1.78854
2185.86	0.781399
2188.8	1.02418
2191.74	1.141881
2194.68	1.50951
2197.61	1.75205
2200.551	0.2445167
2203.48	0.236911
2206.418	0.854229
2209.35	2.09647
2212.28	1.83864
2215.21	1.20575
2218.14	1.44777
2221.07	0.439737
2224	2.806632
2226.92	0.298461
2229.85	2.54022
2232.77	2.53192
2235.69	1.52355
2238.62	2.89013
2241.54	2.50664
2244.46	2.74809
2247.38	1.23949
2250.29	1.355827
2253.21	0.472111
2256.13	0.33834
2259.04	1.57952
2261.95	1.44563
2264.87	0.5617072
2267.78	1.17773
2270.69	0.543707
2273.6	1.40964
2276.51	1.90052
2279.41	0.89136
2282.32	0.882156
2285.22	1.49791
2288.13	-0.511374
2291.031	0.604301
2293.93	0.34494
2296.834	1.96054
2299.73	0.201109
2302.63	1.56664
2305.53	0.0571435
2308.43	0.0476137
2311.32	1.16305
2314.22	-0.0965328
2317.11	2.51885
2320.01	1.50921
2322.9	1.74955
2325.79	0.239869
2328.676	1.98016
2331.56	1.345433
2334.45	2.08569
2337.34	0.825924
2340.23	1.31614
2343.11	0.681356
2345.99	1.17155
2348.87	2.16173
2351.76	2.5269
2354.64	1.01707
2357.52	1.88222
2360.39	0.997373
2363.27	1.86252
2366.15	2.35266
2369.02	0.967801
2371.9	1.45794
2374.77	2.44808
2377.64	1.563224
2380.51	2.92837
2383.38	3.16852
2386.25	2.03368
2389.12	1.89884
2391.99	2.88902
2394.853	1.3792
2397.72	3.6194
2400.58	1.60961
2403.45	4.22483
2406.31	2.46508
2409.17	1.205333
2412.03	2.44561
2414.89	3.56091
2417.74	3.05123
2420.6	2.666568
2423.46	2.28194
2426.31	2.52232
2429.16	4.26274
2432.02	3.12819
2434.87	5.74367
2437.72	5.85917
2440.57	8.34971
2443.42	9.84028
2446.27	11.83089
2449.11	13.9465
2451.96	17.3122
2454.8	18.0529
2457.65	18.04369
2460.49	16.9095
2463.33	15.4003
2466.17	16.3912
2469.01	11.8822
2471.85	10.4981
2474.69	12.6142
2477.53	9.85524
2480.36	10.2214
2483.19	8.96255
2486.03	6.70378
2488.86	8.19506
2491.69	6.0614
2494.52	6.0528
2497.35	4.29425
2500.18	6.035759
2503.01	5.15233
2505.84	4.89397
2508.66	4.26066
2511.49	3.62742
2514.31	0.869249
2517.13	4.23614
2519.95	5.10309
2522.78	4.595118
2525.59	4.71221
2528.41	5.45438
2531.23	2.69662
2534.05	4.93892
2536.86	2.681308
2539.68	2.79877
2542.491	4.0413
2545.3	3.40891
2548.12	3.6516
2550.93	3.01936
2553.74	3.63721
2556.54	4.75514
2559.35	3.62315
2562.16	2.74124
2564.96	4.60942
2567.77	3.35268
2570.57	4.97103
2573.375	5.08947
2576.177	4.33299
2578.978	5.8266
2581.78	5.32031
2584.58	5.5641
2587.375	3.55798
2590.17	5.676959
2592.97	5.42103
2595.762	6.0402
2598.56	3.53446
2601.35	6.27881
2604.14	6.14827
2606.93	9.64281
2609.72	7.13746
2612.51	7.88221
2615.3	9.25206
2618.09	11.622
2620.87	12.8671
2623.658	12.1122
2626.44	14.6075
2629.22	15.7278
2632.01	21.3483
2634.79	23.2189
2637.57	24.4645
2640.35	31.8353
2643.13	39.0812
2645.9	55.3272
2648.68	64.0733
2651.45	83.4445
2654.23	104.566
2657	148.562
2659.77	177.684
2662.55	230.555
2665.32	295.052
2668.09	352.924
2670.85	387.046
2673.62	406.918
2676.39	416.29
2679.15	395.163
2681.92	358.285
2684.68	316.033
2687.45	273.28
2690.21	220.278
2692.968	191.4012
2695.73	155.399
2698.49	115.772
2701.24	99.2707
2704.001	74.019
2706.76	70.76754
2709.51	54.0162
2712.27	45.5149
2715.02	37.5138
2717.772	33.3878
2720.52	28.1369
2723.27	20.7611
2726.02	20.1354
2728.77	17.2599
2731.52	18.50947
2734.26	14.6342
2737.01	11.509
2739.75	10.634
2742.5	12.259
2745.24	9.13421
2747.98	9.50953
2750.72	9.25996
2753.46	8.13552
2756.2	6.1362
2758.939	7.38701
2761.68	6.63793
2764.41	5.01398
2767.15	5.01515
2769.88	5.26644
2772.613	5.39285
2775.345	2.894387
2778.08	4.64605
2780.81	3.772825
2783.54	4.27473
2786.26	3.776751
2788.991	3.0289
2791.72	4.03116
2794.44	3.28355
2797.17	4.03606
2799.89	4.41369
2802.61	3.54145
2805.334	3.91932
2808.05	2.047313
2810.77	2.92543
2813.49	1.42866
2816.21	1.68202
2818.93	3.56049
2821.65	0.939082
2824.36	3.44279
2827.07	3.44662
2829.79	4.20057
2832.5	2.70464
2835.21	2.70882
2837.92	3.58812
2840.63	0.842539
2843.34	2.34707
2846.05	1.72672
2848.75	3.231487
2851.46	2.86137
2854.16	2.241363
2856.87	2.87147
2859.57	1.37669
2862.272	2.25703
2864.97	2.01247
2867.67	1.39303
2870.37	3.7737
2873.07	4.40448
2875.77	3.03537
2878.46	2.916373
2881.16	2.04748
2883.85	2.1787
2886.55	2.18503
2889.24	2.69145
2891.93	2.447994
2894.62	0.954635
2897.311	3.83638
2900	2.71823
2902.688	3.60019
2905.37	1.85725
2908.061	1.98941
2910.75	1.49667
2913.43	1.004029
2916.11	2.13649
2918.8	0.769043
2921.48	1.4017
2924.16	1.90945
2926.84	0.917302
2929.52	2.17524
2932.19	2.55828
2934.87	1.31641
2937.55	1.94963
2940.22	1.33295
2942.89	1.96635
2945.57	1.34985
2948.24	-0.0165742
2950.91	0.117094
2953.58	1.75085
2956.25	1.38469
2958.92	2.01862
2961.59	1.90262
2964.25	1.03671
2966.92	3.17088
2969.59	1.05514
2972.25	1.31447
2974.91	0.823878
2977.57	1.20836
2980.24	0.842922
2982.9	1.35256
2985.55	0.987264
2988.21	1.87204
2990.87	0.881895
2993.53	0.766816
2996.18	2.77681
2998.84	2.28686
3001.49	1.67198
3004.14	1.18217
3006.8	0.692422
3009.45	1.57773
3012.1	0.588109
3014.75	2.34854
3017.396	0.609035
3020.04	1.11958
3022.69	-0.24481
3025.34	0.76585
3027.98	1.27656
3030.63	2.66233
3033.27	1.04814
3035.91	2.434
3038.55	2.44491
3041.19	0.580869
3043.83	0.591872
3046.47	2.60292
3049.11	0.614
3051.74	1.625128
3054.38	2.2613
3057.01	1.0225
3059.65	1.03374
3062.281	1.42001
3064.91	1.30632
3067.55	0.692664
3070.17	0.579029
3072.8	1.09043
3075.43	1.60186
3078.06	1.6133
3080.69	1.74978
3083.31	2.13627
3085.94	0.897795
3088.563	1.65934
3091.19	1.67089
3093.81	0.182463
3096.43	3.06905
3099.05	1.58065
3101.67	1.46726
3104.29	-0.146119
3106.91	3.86551
3109.52	2.12715
3112.14	0.763786
3114.75	3.02543
3117.37	1.91208
3119.98	1.29873
3122.59	1.060372
3125.21	2.44702
3127.82	1.33365
3130.427	0.595289
3133.04	1.35691
3135.64	1.118522
3138.251	2.88013
3140.86	2.64171
3143.46	0.778287
3146.07	1.03985
3148.67	1.80139
3151.27	1.93791
3153.874	1.3244
3156.48	0.835881
3159.08	2.59733
3161.67	1.10875
3164.27	1.12014
3166.87	0.1315143
3169.47	1.51785
3172.06	1.52914
3174.66	1.04041
3177.251	1.55163
3179.85	1.93783
3182.437	1.19897
3185.03	2.33508
3187.62	2.09614
3190.21	0.357154
3192.8	3.74312
3195.38	1.75404
3197.97	1.76491
3200.56	2.02572
3203.14	3.28648
3205.73	1.92219
3208.31	3.18284
3210.89	1.81842
3213.47	1.95395
3216.054	3.33941
3218.63	2.84981
3221.21	4.98514
3223.791	3.3704
3226.37	4.6306
3228.95	6.26572
3231.52	10.2758
3234.1	13.9107
3236.67	14.6706
3239.241	19.9304
3241.81	25.56518
3244.38	26.5748
3246.96	27.4594
3249.52	23.2189
3252.09	20.1033
3254.66	13.9876
3257.23	11.3718
3259.79	8.88093
3262.36	6.389957
3264.92	4.27389
3267.49	2.53272
3270.05	2.66646
3272.61	3.80009
3275.17	2.30862
3277.73	0.942052
3280.29	0.82537
3282.85	2.95859
3285.41	2.21669
3287.96	2.59968
3290.52	2.60756
3293.07	2.36533
3295.63	1.37298
3298.18	1.38051
3300.73	2.38792
3303.28	1.39521
3305.83	1.52738
3308.38	0.659428
3310.93	2.79134
3313.479	2.54814
3316.03	1.6798
3318.57	2.56133
3321.12	3.442734
3323.66	1.199
3326.21	2.58013
3328.75	0.961127
3331.29	1.96699
3333.83	2.5977
3336.37	0.7282778
3338.91	1.23371
3341.448	2.364002
3343.99	0.994145
3346.52	1.62414
3349.06	1.12899
3351.593	0.7586894
3354.13	2.01324
3356.66	2.017632
3359.19	-0.103129
3361.72	2.02596
3364.25	1.15488
3366.79	0.7836535
3369.31	2.66226
3371.84	2.29071
3374.37	1.919
3376.9	2.54712
3379.42	1.30008
3381.95	2.05287
3384.47	2.68049
3386.99	2.55795
3389.52	3.18524
3392.04	1.31235
3394.56	0.814293
3397.08	1.81606
3399.6	1.56766
3402.12	2.19407
3404.63	1.19531
3407.15	2.94638
3409.66	2.19726
3412.179	1.82297
3414.69	3.44849
3417.21	0.948827
3419.72	2.94898
3422.23	2.32396
3424.74	3.19874
3427.25	0.573342
3429.76	1.44776
3432.27	2.19698
3434.77	2.07101
3437.28	1.56986
3439.79	2.19351
3442.29	2.56698
3444.79	1.69025
3447.3	1.31332
3449.8	1.6862
3452.3	2.05889
3454.8	0.0563816
3457.3	2.05368
3459.8	1.925772
3462.3	1.42267
3464.79	1.66937
3467.29	1.54087
3469.79	2.16217
3472.28	3.28328
3474.77	1.40418
3477.27	1.52488
3479.76	3.02037
3482.25	1.14066
3484.741	1.38576
3487.23	1.88064
3489.72	1.37533
3492.21	0.244805
3494.69	1.86408
3497.18	1.85815
3499.666	1.35202
3502.15	0.720673
3504.63	1.71413
3507.12	1.957372
3509.6	0.950414
3512.08	1.31825
3514.56	1.43588
3517.04	1.3033
3519.521	1.54551
3522	1.16252
3524.48	1.52932
3526.95	-0.4790886
3529.43	0.7623
3531.9	0.878476
3534.38	1.74445
3536.85	0.8602187
3539.32	1.60078
3541.79	0.96613
3544.26	1.33128
3546.73	1.196223
3549.2	0.310961
3551.67	0.0504878
3554.14	2.41481
3556.61	1.02894
3559.07	2.14286
3561.54	1.88157
3564	1.99508
3566.46	1.35839
3568.93	0.846494
3571.39	1.4594
3573.85	1.0721
3576.31	0.684608
3578.77	2.67191
3581.23	1.40902
3583.68	1.27093
3586.14	1.38264
3588.6	0.494148
3591.052	0.3554664
3593.51	1.21659
3595.96	3.07752
3598.41	1.06325
3600.865	0.673797
3603.32	1.03415
3605.77	0.894314
3608.22	0.3792904
3610.665	1.86408
3613.11	0.223686
3615.56	1.5831
3618.01	0.192337
3620.45	0.8013863
3622.896	0.910256
3625.34	0.518946
3627.78	1.62747
3630.22	0.985802
3632.67	1.84396
3635.11	0.201947
3637.55	1.05977
3639.99	-0.457584
3642.42	0.149891
3644.86	0.382211
3647.3	0.114353
3649.73	0.0963338
3652.17	0.203164
3654.6	-0.440175
3657.04	0.291328
3659.47	-0.352314
3661.9	0.25388