File: data/SEM_Raman_Data/KZPd_170928-4/20170926-4 on SiO2_1.txt
672.793	1139.25
676.3017	1290.56
679.809	945.479
683.316	1001.02
686.818	910.167
690.322	733.959
693.824	614.384
697.325	466.446
700.825	392.149
704.321	455.48
707.8175	395.4787
711.313	225.131
714.807	120.443
718.3	217.417
721.789	96.0423
725.279	37.3549
728.768	69.3428
732.255	0.00949505
735.7392	58.3449
739.224	116.383
742.707	99.112
746.187	128.522
749.668	105.646
753.147	126.472
756.623	137.992
760.1	126.235
763.575	266.194
767.047	203.856
770.519	223.254
773.9906	200.377
777.4585	212.215
780.927	335.799
784.394	471.12
787.858	468.166
791.323	472.968
794.784	449.503
798.246	571.8
801.705	589.839
805.164	727.645
808.6217	672.21
812.076	821.527
815.532	844.62
818.984	874.471
822.436	997.106
825.885	908.5047
829.335	864.6925
832.782	940.651
836.229	792.404
839.673	708.933
843.118	698.263
846.559	780.3761
849.999	672.285
853.44	648.002
856.878	728.511
860.316	610.834
863.75	650.954
867.186	770.893
870.618	864.635
874.049	817.192
877.48	847.576
880.909	739.771
884.335	870.788
887.763	802.64
891.187	787.311
894.612	860.82
898.034	891.153
901.454	897.322
904.873	1016.33
908.293	925.182
911.709	1010.87
915.124	1156.4
918.54	1204.79
921.953	1406.02
925.364	1541.1
928.774	2027.03
932.184	3064.82
935.592	4546.47
938.998	6314.97
942.402	8206.34
945.8078	8891.58
949.21	8841.67
952.611	8639.64
956.01	8310.47
959.409	8483.18
962.805	8711.76
966.203	8872.22
969.597	8699.56
972.99	8846.77
976.3822	8801.86
979.773	8846.84
983.162	8920.7
986.55	8462.45
989.936	7647.09
993.324	5858.623
996.708	4415.04
1000.09	3607.355
1003.47	2868.563
1006.852	2512.668
1010.23	2213.67
1013.61	1753.57
1016.98	1761.38
1020.36	1506.09
1023.73	1177.7
1027.11	1038.22
1030.48	778.646
1033.85	560.982
1037.22	387.228
1040.58	283.387
1043.95	223.459
1047.31	182.446
1050.68	97.3485
1054.04	33.1691
1057.4	55.9083
1060.76	89.5623
1064.12	68.1432
1067.47	54.647
1070.83	32.075
1074.18	100.428
1077.54	29.7072
1080.89	-2.08548
1084.24	34.0505
1087.59	2.11105
1090.937	135.109
1094.28	91.0377
1097.63	177.901
1100.97	96.6981
1104.32	166.431
1107.66	204.0956
1111	183.703
1114.34	274.249
1117.68	237.735
1121.01	215.157
1124.35	332.525
1127.68	252.836
1131.014	260.091
1134.344	304.285
1137.67	303.43
1141.004	322.521
1144.33	176.555
1147.66	156.542
1150.98	89.4773
1154.31	88.3586
1157.63	98.195
1160.95	117.983
1164.27	138.719
1167.59	125.412
1170.91	127.06
1174.22	136.658
1177.54	71.2154
1180.85	104.725
1184.16	147.196
1187.47	138.624
1190.78	138.007
1194.09	111.353
1197.4	161.654
1200.71	136.92
1204.01	234.143
1207.31	105.332
1210.615	210.478
1213.92	150.592
1217.22	72.6656
1220.52	192.707
1223.81	144.709
1227.11	164.681
1230.4	201.614
1233.7	134.518
1236.99	145.384
1240.28	229.219
1243.57	194.0246
1246.86	133.795
1250.15	172.5387
1253.43	210.248
1256.71	309.9267
1259.999	318.58
1263.28	303.2001
1266.56	284.795
1269.84	395.3587
1273.12	407.8941
1276.4	421.406
1279.67	422.887
1282.95	584.341
1286.22	588.769
1289.49	650.175
1292.76	705.552
1296.03	831.904
1299.304	921.235
1302.57	1071.537
1305.84	1278.82
1309.1	1400.07
1312.37	1561.31
1315.63	2024.51
1318.89	2393.699
1322.15	2978.86
1325.41	3544
1328.67	4323.125
1331.92	5321.22
1335.18	6285.3
1338.43	7165.35
1341.68	7812.39
1344.93	8294.4
1348.18	8329.39
1351.43	8208.37
1354.68	7886.32
1357.93	7228.25
1361.17	6292.17
1364.42	5669.06
1367.66	4818.937
1370.9	4132.793
1374.14	3604.63
1377.38	3057.45
1380.616	2579.25
1383.85	2299.03
1387.09	1835.8
1390.322	1619.54
1393.55	1501.27
1396.79	1223.98
1400.02	1165.68
1403.25	1096.35
1406.47	959.014
1409.7	850.656
1412.93	853.282
1416.15	679.8905
1419.38	646.4826
1422.6	696.058
1425.82	634.617
1429.04	703.16
1432.25	705.683
1435.47	624.193
1438.69	619.687
1441.9	649.1651
1445.12	719.627
1448.33	617.073
1451.54	668.5
1454.75	612.915
1457.96	654.314
1461.17	665.697
1464.37	695.065
1467.58	671.413
1470.78	751.75
1473.98	681.071
1477.19	820.377
1480.39	901.6637
1483.58	1006.94
1486.78	1031.198
1489.98	1126.44
1493.17	1204.67
1496.37	1237.88
1499.563	1330.08
1502.75	1316.26
1505.94	1246.43
1509.14	1292.58
1512.32	1411.71
1515.51	1389.84
1518.7	1479.94
1521.88	1566.03
1525.06	1654.11
1528.25	1750.17
1531.43	1915.21
1534.61	1998.24
1537.79	2325.25
1540.96	2639.25
1544.14	3085.23
1547.32	3436.2
1550.489	4123.15
1553.66	4999.09
1556.83	6131.01
1560	7865.918
1563.17	10005.807
1566.34	13127.683
1569.51	16810.539
1572.675	21002.385
1575.84	26243.211
1579	31035.023
1582.16	34601.816
1585.32	36831.598
1588.49	36213.363
1591.64	33723.109
1594.8	30063.844
1597.96	24835.559
1601.11	20295.258
1604.27	16147.942
1607.42	12639.609
1610.57	9869.26
1613.72	8024.896
1616.871	6617.51
1620.02	5473.12
1623.17	4733.7
1626.31	4093.271
1629.46	3453.823
1632.6	3117.36
1635.74	2499.88
1638.88	2123.38
1642.02	1741.87
1645.16	1528.34
1648.3	1265.79
1651.44	1092.22
1654.57	899.639
1657.7	766.039
1660.84	707.424
1663.97	653.789
1667.1	617.137
1670.23	596.468
1673.36	508.781
1676.48	486.077
1679.61	468.358
1682.74	379.618
1685.86	329.861
1688.98	334.086
1692.1	251.293
1695.22	310.482
1698.34	304.6532
1701.46	230.806
1704.58	182.941
1707.69	203.058
1710.81	155.157
1713.92	160.237
1717.03	133.299
1720.14	177.342
1723.25	89.3667
1726.36	129.373
1729.47	160.361
1732.58	106.33
1735.68	188.28
1738.78	131.211
1741.89	178.124
1744.99	161.017
1748.09	-0.108548
1751.19	72.7468
1754.29	101.583
1757.39	139.4
1760.48	134.196
1763.58	103.974
1766.67	115.733
1769.76	102.473
1772.85	119.193
1775.94	99.89344
1779.03	96.5724
1782.12	134.234
1785.21	182.875
1788.29	107.497
1791.379	102.099
1794.46	91.67968
1797.54	148.242
1800.63	115.784
1803.7	75.3049
1806.78	93.8073
1809.86	126.289
1812.94	184.752
1816.01	162.192
1819.09	106.613
1822.16	116.015
1825.23	53.3939
1828.31	149.755
1831.38	55.0952
1834.44	149.413
1837.51	141.713
1840.58	183.99
1843.64	82.2485
1846.71	125.487
1849.77	113.702
1852.83	187.899
1855.89	148.073
1858.95	133.228
1862.01	167.361
1865.07	117.475
1868.125	172.567
1871.18	186.639
1874.23	199.689
1877.29	198.72
1880.34	165.728
1883.39	157.717
1886.44	128.6839
1889.49	158.631
1892.54	207.556
1895.58	131.462
1898.63	103.344
1901.67	178.207
1904.72	142.049
1907.76	71.8693
1910.8	100.67
1913.84	119.448
1916.88	108.206
1919.91	137.943
1922.95	88.6586
1925.98	56.353
1929.02	82.0279
1932.052	106.68
1935.08	108.312
1938.11	116.922
1941.14	103.513
1944.17	110.082
1947.2	74.6297
1950.23	78.1564
1953.25	101.664
1956.28	123.1488
1959.3	145.613
1962.32	152.056
1965.34	88.4787
1968.36	100.882
1971.38	169.263
1974.4	107.623
1977.41	158.962
1980.43	170.281
1983.44	90.5786
1986.46	163.856
1989.469	182.114
1992.48	211.35
1995.49	185.565
1998.498	145.76
2001.51	191.935
2004.512	189.089
2007.52	171.222
2010.52	189.336
2013.52	127.428
2016.527	113.501
2019.53	139.553
2022.528	177.585
2025.527	184.597
2028.52	155.589
2031.52	147.561
2034.52	105.513
2037.51	94.4443
2040.51	135.356
2043.5	144.248
2046.49	117.121
2049.478	65.972
2052.47	64.8049
2055.46	95.6181
2058.44	140.412
2061.43	125.186
2064.41	84.9408
2067.4	138.676
2070.38	84.39135
2073.36	65.0883
2076.34	81.7661
2079.32	143.4248
2082.3	104.064
2085.28	80.6844
2088.25	81.2862
2091.23	77.8694
2094.2	54.433
2097.17	75.9788
2100.146	97.5061
2103.12	75.0149
2106.09	105.505
2109.05	93.9768
2112.02	95.4308
2114.99	86.8659
2117.95	152.284
2120.92	108.684
2123.88	127.065
2126.844	85.4293
2129.804	92.7752
2132.76	117.104
2135.72	115.416
2138.68	80.7096
2141.64	60.98658
2144.59	78.2457
2147.55	73.4886
2150.5	89.7136
2153.46	76.9226
2156.41	40.114
2159.36	47.2896
2162.31	60.4479
2165.25	47.5903
2168.2	58.7159
2171.15	70.8259
2174.09	46.9191
2177.04	34.9969
2179.98	24.05821
2182.92	32.1044
2185.86	39.1342
2188.8	44.14854
2191.74	0.148094
2194.68	28.1317
2197.61	45.1001
2200.551	57.054
2203.48	54.9924
2206.418	66.916
2209.35	103.825
2212.28	42.7196
2215.21	53.5994
2218.14	63.4654
2221.07	79.3166
2224	101.154
2226.92	71.977
2229.85	119.787
2232.77	150.583
2235.69	84.3647
2238.62	136.133
2241.54	90.8887
2244.46	140.631
2247.38	133.361
2250.29	125.0768
2253.21	71.7802
2256.13	105.471
2259.04	132.1494
2261.95	128.816
2264.87	161.47
2267.78	104.111
2270.69	133.7408
2273.6	149.359
2276.51	146.965
2279.41	144.56
2282.32	74.14283
2285.22	68.7148
2288.13	88.2758
2291.031	60.8257
2293.93	89.3648
2296.834	32.8933
2299.73	108.411
2302.63	76.9187
2305.53	111.416
2308.43	36.9032
2311.32	42.3805
2314.22	58.8479
2317.11	97.3057
2320.01	27.754
2322.9	94.1927
2325.79	49.6224
2328.676	33.0431
2331.56	68.4548
2334.45	77.8578
2337.34	44.2522
2340.23	47.6381
2343.11	68.0155
2345.99	96.3849
2348.87	70.7464
2351.76	133.1
2354.64	97.4457
2357.52	94.784
2360.39	104.115
2363.27	130.439
2366.15	88.7551
2369.02	117.065
2371.9	102.368
2374.77	151.664
2377.64	106.953
2380.51	142.237
2383.38	113.514
2386.25	159.785
2389.12	153.051
2391.99	153.3103
2394.853	177.564
2397.72	162.8132
2400.58	204.057
2403.45	220.295
2406.31	243.528
2409.17	224.757
2412.03	324.981
2414.89	240.201
2417.74	304.416
2420.6	348.627
2423.46	394.834
2426.31	405.037
2429.16	434.237
2432.02	444.433
2434.87	474.625
2437.72	583.815
2440.57	632.001
2443.42	600.1842
2446.27	695.365
2449.11	685.543
2451.96	800.718
2454.8	778.891
2457.65	811.062
2460.49	813.231
2463.33	845.398
2466.17	877.564
2469.01	809.727
2471.85	793.89
2474.69	756.0509
2477.53	716.211
2480.36	710.37
2483.19	622.528
2486.03	565.686
2488.86	697.843
2491.69	555
2494.52	551.156
2497.35	484.3129
2500.18	481.47
2503.01	467.626
2505.84	491.783
2508.66	489.9411
2511.49	503.099
2514.31	476.259
2517.13	430.4187
2519.95	456.58
2522.78	425.742
2525.59	435.906
2528.41	477.072
2531.23	401.239
2534.05	369.4075
2536.86	417.578
2539.68	381.751
2542.491	422.9263
2545.3	425.104
2548.12	443.284
2550.93	394.466
2553.74	446.652
2556.54	527.84
2559.35	486.031
2562.16	460.226
2564.96	487.424
2567.77	465.625
2570.57	527.83
2573.375	559.039
2576.177	690.2511
2578.978	648.468
2581.78	574.688
2584.58	702.913
2587.375	714.142
2590.17	779.376
2592.97	870.614
2595.762	877.857
2598.56	829.104
2601.35	935.3573
2604.14	954.615
2606.93	1053.88
2609.72	1146.15
2612.51	1194.42
2615.3	1281.7
2618.09	1517.99
2620.87	1568.28
2623.658	1767.57
2626.44	1936.88
2629.22	2139.19
2632.01	2369.5
2634.79	2627.82
2637.57	2948.15
2640.35	3232.49
2643.13	3667.83
2645.9	4095.18
2648.68	4526.53
2651.45	5160.89
2654.23	5771.26
2657	6455.64
2659.77	7202.02
2662.55	7926.415
2665.32	8776.81
2668.09	9615.22
2670.85	10471.635
2673.62	11482.058
2676.39	12227.487
2679.15	12744.926
2681.92	13349.372
2684.68	13843.827
2687.45	14259.29
2690.21	14317.761
2692.968	14492.24
2695.73	14493.729
2698.49	14167.226
2701.24	13687.731
2704.001	13420.246
2706.76	12837.77
2709.51	12204.302
2712.27	11370.843
2715.02	10467.394
2717.772	9593.95
2720.52	9205.52
2723.27	8295.1
2726.02	7289.69
2728.77	6762.29
2731.52	6035.89
2734.26	5465.51
2737.01	4834.14
2739.75	4279.77
2742.5	3854.42
2745.24	3467.073
2747.98	3011.74
2750.72	2754.41
2753.46	2410.1
2756.2	2137.8
2758.939	1889.5
2761.68	1664.22
2764.41	1615.95
2767.15	1364.68
2769.88	1214.431
2772.613	1062.19
2775.345	1081.96
2778.08	933.737
2780.81	854.527
2783.54	782.327
2786.26	727.138
2788.991	736.96
2791.72	546.793
2794.44	592.6366
2797.17	572.491
2799.89	536.356
2802.61	531.2326
2805.334	487.119
2808.05	400.018
2810.77	424.927
2813.49	376.8472
2816.21	447.779
2818.93	393.721
2821.65	368.675
2824.36	347.639
2827.07	389.615
2829.79	352.602
2832.5	367.601
2835.21	278.61
2837.92	283.631
2840.63	299.663
2843.34	355.7063
2846.05	343.761
2848.75	326.826
2851.46	346.904
2854.16	360.992
2856.87	363.0918
2859.57	332.203
2862.272	307.326
2864.97	319.459
2867.67	294.604
2870.37	319.7601
2873.07	353.928
2875.77	349.107
2878.46	325.297
2881.16	334.499
2883.85	343.711
2886.55	353.936
2889.24	403.17
2891.93	444.417
2894.62	430.675
2897.311	427.944
2900	406.223
2902.688	379.515
2905.37	411.817
2908.061	463.131
2910.75	520.455
2913.43	573.791
2916.11	552.137
2918.8	564.495
2921.48	583.864
2924.16	584.243
2926.84	595.634
2929.52	607.035
2932.19	595.446
2934.87	515.8689
2937.55	633.303
2940.22	690.747
2942.89	620.202
2945.57	569.668
2948.24	555.144
2950.91	578.63
2953.58	554.127
2956.25	549.635
2958.92	471.1525
2961.59	498.68
2964.25	484.219
2966.92	448.767
2969.59	431.3262
2972.25	389.895
2974.91	371.473
2977.57	363.062
2980.24	327.66
2982.9	320.268
2985.55	239.8864
2988.21	216.514
2990.87	201.151
2993.53	228.798
2996.18	178.455
2998.84	164.12
3001.49	101.795
3004.14	154.479
3006.8	106.173
3009.45	85.8752
3012.1	140.587
3014.75	78.3071
3017.396	72.0362
3020.04	94.7742
3022.69	56.5208
3025.34	108.276
3027.98	75.0396
3030.63	82.8117
3033.27	22.5919
3035.91	119.379
3038.55	91.176
3041.19	22.9807
3043.83	46.79319
3046.47	47.6136
3049.11	27.4405
3051.74	91.27607
3054.38	12.1193
3057.01	-8.03021
3059.65	17.8265
3062.281	64.6915
3064.91	73.5636
3067.55	49.44265
3070.17	57.3273
3072.8	5.220017
3075.43	70.11911
3078.06	6.02376
3080.69	67.936
3083.31	56.8533
3085.94	24.7778
3088.563	50.7084
3091.19	54.6438
3093.81	19.58597
3096.43	39.5328
3099.05	56.4864
3101.67	43.4441
3104.29	34.4083
3106.91	11.3777
3109.52	65.351
3112.14	77.3291
3114.75	3.31316
3117.37	29.3009
3119.98	49.2939
3122.59	35.2904
3125.21	66.2923
3127.82	63.297
3130.427	24.3068
3133.04	45.3194
3135.64	48.3358
3138.251	71.3565
3140.86	85.3797
3143.46	118.406
3146.07	57.4368
3148.67	72.4694
3151.27	98.5047
3153.874	98.5426
3156.48	101.584
3159.08	125.627
3161.67	115.672
3164.27	173.719
3166.87	145.77
3169.47	233.821
3172.06	185.873
3174.66	209.9272
3177.251	274.9826
3179.85	180.04
3182.437	171.0976
3185.03	259.156
3187.62	222.215
3190.21	174.275
3192.8	241.334
3195.38	212.395
3197.97	256.455
3200.56	218.515
3203.14	246.575
3205.73	241.6342
3208.31	236.693
3210.89	270.751
3213.47	282.808
3216.054	303.864
3218.63	352.919
3221.21	367.972
3223.791	390.024
3226.37	513.074
3228.95	486.122
3231.52	548.168
3234.1	569.212
3236.67	616.253
3239.241	706.291
3241.81	796.327
3244.38	800.36
3246.96	911.39
3249.52	835.417
3252.09	821.44
3254.66	770.4585
3257.23	792.474
3259.79	623.486
3262.36	555.494
3264.92	524.497
3267.49	478.495
3270.05	443.49
3272.61	416.478
3275.17	383.463
3277.73	296.442
3280.29	272.415
3282.85	198.383
3285.41	163.346
3287.96	164.3019
3290.52	155.253
3293.07	149.1964
3295.63	118.135
3298.18	104.066
3300.73	110.9902
3303.28	103.908
3305.83	77.8181
3308.38	87.7218
3310.93	58.6168
3313.479	88.5055
3316.03	53.3853
3318.57	72.2581
3321.12	18.1219
3323.66	24.9772
3326.21	29.82513
3328.75	56.6633
3331.29	25.4937
3333.83	81.3142
3336.37	-0.874609
3338.91	10.9284
3341.448	31.7207
3343.99	54.5033
3346.52	63.2773
3349.06	59.04
3351.593	-0.207318
3354.13	33.5359
3356.66	24.2675
3359.19	51.9884
3361.72	41.6985
3364.25	16.3976
3366.79	29.0864
3369.31	60.7628
3371.84	43.4278
3374.37	-1.91903
3376.9	25.7223
3379.42	98.35154
3381.95	32.9695
3384.47	8.57415
3386.99	26.1664
3389.52	25.7458
3392.04	58.3125
3394.56	86.866
3397.08	82.4064
3399.6	50.93354
3402.12	36.4471
3404.63	58.947
3407.15	76.4331
3409.66	82.9053
3412.179	42.3633
3414.69	78.8073
3417.21	46.2365
3419.72	65.6515
3422.23	18.0514
3424.74	103.437
3427.25	101.807
3429.76	130.161
3432.27	74.5009
3434.77	100.825
3437.28	71.1339
3439.79	84.4268
3442.29	73.7039
3444.79	80.9643
3447.3	55.2093
3449.8	99.4379
3452.3	64.6501
3454.8	42.845
3457.3	75.024
3459.8	70.1861
3462.3	71.3306
3464.79	68.4587
3467.29	79.5697
3469.79	61.6633
3472.28	107.739
3474.77	57.7974
3477.27	1.83758
3479.76	54.8606
3482.25	54.8658
3484.741	52.8523
3487.23	79.8212
3489.72	53.7714
3492.21	52.7036
3494.69	52.6169
3497.18	84.5121
3499.666	104.388
3502.15	31.2458
3504.63	47.0842
3507.12	92.9041
3509.6	37.7044
3512.08	60.486
3514.56	27.2478
3517.04	36.9903
3519.521	22.7138
3522	60.4173
3524.48	98.1017
3526.95	56.7659
3529.43	62.4104
3531.9	71.0354
3534.38	77.6402
3536.85	82.2249
3539.32	46.7895
3541.79	66.3344
3544.26	79.8588
3546.73	93.3629
3549.2	54.8467
3551.67	89.3103
3554.14	58.7534
3556.61	124.176
3559.07	55.5779
3561.54	75.9593
3564	100.32
3566.46	59.6605
3568.93	90.9799
3571.39	40.2787
3573.85	70.5566
3576.31	60.8138
3578.77	98.0501
3581.23	89.2656
3583.68	64.4603
3586.14	64.634
3588.6	45.7868
3591.052	43.9188
3593.51	55.0298
3595.96	32.11982
3598.41	53.189
3600.865	108.237
3603.32	49.2644
3605.77	60.2707
3608.22	56.2562
3610.665	76.22068
3613.11	48.1643
3615.56	32.0871
3618.01	54.989
3620.45	66.8701
3622.896	59.7304
3625.34	43.57
3627.78	24.38888
3630.22	80.187
3632.67	30.9645
3635.11	30.7215
3637.55	0.457997
3639.99	15.1739
3642.42	14.8693
3644.86	7.54466
3647.3	21.19944
3649.73	13.834
3652.17	19.44866
3654.6	28.04303
3657.04	-2.38261
3659.47	22.1721
3661.9	1.70667