File: data/SEM_Raman_Data/KZPd_180417-1/sample.txt
672.793	3876
676.3017	3813
679.809	3679
683.316	3633
686.818	3564
690.322	3483
693.824	3344
697.325	3227
700.825	3204
704.321	3146
707.8175	3118
711.313	3004
714.807	2938
718.3	2924
721.789	2958
725.279	2823
728.768	2862
732.255	2817
735.7392	2819
739.224	2845
742.707	2730
746.187	2747
749.668	2747
753.147	2644
756.623	2711
760.1	2699
763.575	2731
767.047	2694
770.519	2703
773.9906	2791
777.4585	2800
780.927	2792
784.394	2736
787.858	2718
791.323	2802
794.784	2787
798.246	2836
801.705	2862
805.164	2857
808.6217	2795
812.076	2875
815.532	2889
818.984	2837
822.436	2890
825.885	2843
829.335	2764
832.782	2858
836.229	2776
839.673	2700
843.118	2725
846.559	2651
849.999	2630
853.44	2602
856.878	2620
860.316	2671
863.75	2548
867.186	2610
870.618	2623
874.049	2639
877.48	2594
880.909	2633
884.335	2633
887.763	2703
891.187	2641
894.612	2642
898.034	2612
901.454	2647
904.873	2610
908.293	2669
911.709	2735
915.124	2762
918.54	2760
921.953	2861
925.364	3083
928.774	3343
932.184	4162
935.592	5020
938.998	6065
942.402	7179
945.8078	7161
949.21	7200
952.611	6962
956.01	7048
959.409	7001
962.805	7155
966.203	7196
969.597	7133
972.99	7143
976.3822	7159
979.773	7056
983.162	7008
986.55	6675
989.936	5896
993.324	4828
996.708	4084
1000.09	3735
1003.47	3337
1006.852	3136
1010.23	2892
1013.61	2731
1016.98	2643
1020.36	2490
1023.73	2361
1027.11	2134
1030.48	2104
1033.85	1954
1037.22	1920
1040.58	1848
1043.95	1773
1047.31	1771
1050.68	1714
1054.04	1699
1057.4	1693
1060.76	1658
1064.12	1660
1067.47	1648
1070.83	1665
1074.18	1602
1077.54	1634
1080.89	1574
1084.24	1581
1087.59	1570
1090.937	1589
1094.28	1575
1097.63	1499
1100.97	1537
1104.32	1606
1107.66	1554
1111	1507
1114.34	1512
1117.68	1561
1121.01	1555
1124.35	1506
1127.68	1531
1131.014	1531
1134.344	1494
1137.67	1486
1141.004	1531
1144.33	1495
1147.66	1503
1150.98	1492
1154.31	1453
1157.63	1415
1160.95	1398
1164.27	1498
1167.59	1507
1170.91	1464
1174.22	1418
1177.54	1418
1180.85	1369
1184.16	1455
1187.47	1417
1190.78	1418
1194.09	1407
1197.4	1391
1200.71	1376
1204.01	1403
1207.31	1384
1210.615	1404
1213.92	1394
1217.22	1402
1220.52	1383
1223.81	1344
1227.11	1365
1230.4	1338
1233.7	1299
1236.99	1310
1240.28	1303
1243.57	1321
1246.86	1355
1250.15	1349
1253.43	1348
1256.71	1304
1259.999	1334
1263.28	1308
1266.56	1339
1269.84	1337
1273.12	1331
1276.4	1318
1279.67	1347
1282.95	1267
1286.22	1274
1289.49	1310
1292.76	1318
1296.03	1291
1299.304	1240
1302.57	1234
1305.84	1293
1309.1	1297
1312.37	1233
1315.63	1337
1318.89	1294
1322.15	1365
1325.41	1332
1328.67	1392
1331.92	1401
1335.18	1543
1338.43	1677
1341.68	1822
1344.93	1832
1348.18	1748
1351.43	1688
1354.68	1530
1357.93	1463
1361.17	1425
1364.42	1322
1367.66	1259
1370.9	1303
1374.14	1244
1377.38	1292
1380.616	1282
1383.85	1296
1387.09	1265
1390.322	1268
1393.55	1271
1396.79	1218
1400.02	1223
1403.25	1217
1406.47	1174
1409.7	1263
1412.93	1153
1416.15	1160
1419.38	1163
1422.6	1173
1425.82	1122
1429.04	1139
1432.25	1159
1435.47	1215
1438.69	1123
1441.9	1152
1445.12	1210
1448.33	1171
1451.54	1207
1454.75	1167
1457.96	1137
1461.17	1076
1464.37	1138
1467.58	1176
1470.78	1081
1473.98	1099
1477.19	1130
1480.39	1083
1483.58	1121
1486.78	1121
1489.98	1093
1493.17	1117
1496.37	1066
1499.563	1126
1502.75	1114
1505.94	1131
1509.14	1148
1512.32	1136
1515.51	1084
1518.7	1109
1521.88	1150
1525.06	1142
1528.25	1115
1531.43	1082
1534.61	1139
1537.79	1112
1540.96	1123
1544.14	1196
1547.32	1173
1550.489	1268
1553.66	1253
1556.83	1293
1560	1400
1563.17	1469
1566.34	1642
1569.51	1933
1572.675	2314
1575.84	2965
1579	3751
1582.16	4671
1585.32	5790
1588.49	6186
1591.64	5326
1594.8	3761
1597.96	2693
1601.11	2127
1604.27	1710
1607.42	1483
1610.57	1375
1613.72	1275
1616.871	1288
1620.02	1230
1623.17	1217
1626.31	1226
1629.46	1150
1632.6	1110
1635.74	1065
1638.88	1063
1642.02	999
1645.16	976
1648.3	982
1651.44	1002
1654.57	1000
1657.7	975
1660.84	946
1663.97	919
1667.1	943
1670.23	937
1673.36	959
1676.48	922
1679.61	901
1682.74	982
1685.86	912
1688.98	874
1692.1	956
1695.22	875
1698.34	915
1701.46	859
1704.58	844
1707.69	902
1710.81	941
1713.92	873
1717.03	865
1720.14	848
1723.25	873
1726.36	889
1729.47	839
1732.58	856
1735.68	847
1738.78	854
1741.89	853
1744.99	892
1748.09	835
1751.19	888
1754.29	858
1757.39	883
1760.48	887
1763.58	862
1766.67	798
1769.76	813
1772.85	834
1775.94	858
1779.03	887
1782.12	850
1785.21	894
1788.29	887
1791.379	834
1794.46	860
1797.54	849
1800.63	815
1803.7	830
1806.78	891
1809.86	841
1812.94	792
1816.01	854
1819.09	848
1822.16	834
1825.23	887
1828.31	825
1831.38	834
1834.44	793
1837.51	810
1840.58	813
1843.64	811
1846.71	874
1849.77	817
1852.83	853
1855.89	830
1858.95	867
1862.01	861
1865.07	874
1868.125	820
1871.18	845
1874.23	840
1877.29	869
1880.34	845
1883.39	809
1886.44	828
1889.49	815
1892.54	819
1895.58	775
1898.63	775
1901.67	776
1904.72	729
1907.76	817
1910.8	782
1913.84	751
1916.88	775
1919.91	770
1922.95	758
1925.98	775
1929.02	790
1932.052	758
1935.08	757
1938.11	790
1941.14	765
1944.17	777
1947.2	767
1950.23	794
1953.25	759
1956.28	753
1959.3	790
1962.32	762
1965.34	783
1968.36	786
1971.38	809
1974.4	821
1977.41	775
1980.43	806
1983.44	812
1986.46	798
1989.469	808
1992.48	766
1995.49	808
1998.498	806
2001.51	781
2004.512	800
2007.52	774
2010.52	783
2013.52	723
2016.527	745
2019.53	762
2022.528	757
2025.527	745
2028.52	741
2031.52	719
2034.52	740
2037.51	722
2040.51	693
2043.5	697
2046.49	761
2049.478	706
2052.47	673
2055.46	736
2058.44	688
2061.43	669
2064.41	695
2067.4	752
2070.38	737
2073.36	667
2076.34	696
2079.32	703
2082.3	715
2085.28	699
2088.25	693
2091.23	671
2094.2	657
2097.17	690
2100.146	680
2103.12	699
2106.09	678
2109.05	658
2112.02	692
2114.99	662
2117.95	658
2120.92	693
2123.88	675
2126.844	653
2129.804	711
2132.76	683
2135.72	691
2138.68	675
2141.64	681
2144.59	648
2147.55	675
2150.5	646
2153.46	638
2156.41	676
2159.36	608
2162.31	656
2165.25	674
2168.2	638
2171.15	632
2174.09	648
2177.04	649
2179.98	634
2182.92	632
2185.86	641
2188.8	647
2191.74	636
2194.68	596
2197.61	668
2200.551	649
2203.48	659
2206.418	641
2209.35	596
2212.28	651
2215.21	645
2218.14	618
2221.07	676
2224	621
2226.92	659
2229.85	654
2232.77	681
2235.69	644
2238.62	652
2241.54	626
2244.46	664
2247.38	670
2250.29	652
2253.21	645
2256.13	659
2259.04	628
2261.95	624
2264.87	629
2267.78	630
2270.69	614
2273.6	644
2276.51	620
2279.41	624
2282.32	664
2285.22	617
2288.13	624
2291.031	636
2293.93	637
2296.834	592
2299.73	631
2302.63	614
2305.53	572
2308.43	582
2311.32	637
2314.22	609
2317.11	616
2320.01	647
2322.9	617
2325.79	614
2328.676	591
2331.56	608
2334.45	595
2337.34	593
2340.23	597
2343.11	606
2345.99	575
2348.87	600
2351.76	578
2354.64	612
2357.52	611
2360.39	574
2363.27	597
2366.15	596
2369.02	640
2371.9	620
2374.77	636
2377.64	614
2380.51	604
2383.38	627
2386.25	610
2389.12	629
2391.99	607
2394.853	597
2397.72	631
2400.58	606
2403.45	584
2406.31	627
2409.17	652
2412.03	638
2414.89	676
2417.74	647
2420.6	672
2423.46	658
2426.31	635
2429.16	682
2432.02	691
2434.87	709
2437.72	720
2440.57	785
2443.42	810
2446.27	876
2449.11	928
2451.96	968
2454.8	1099
2457.65	1103
2460.49	1092
2463.33	1145
2466.17	1064
2469.01	1028
2471.85	995
2474.69	901
2477.53	924
2480.36	911
2483.19	877
2486.03	820
2488.86	814
2491.69	772
2494.52	836
2497.35	697
2500.18	768
2503.01	725
2505.84	724
2508.66	720
2511.49	713
2514.31	687
2517.13	656
2519.95	681
2522.78	675
2525.59	683
2528.41	686
2531.23	665
2534.05	664
2536.86	683
2539.68	673
2542.491	634
2545.3	637
2548.12	666
2550.93	666
2553.74	691
2556.54	655
2559.35	684
2562.16	693
2564.96	685
2567.77	666
2570.57	671
2573.375	724
2576.177	653
2578.978	708
2581.78	670
2584.58	717
2587.375	702
2590.17	691
2592.97	736
2595.762	711
2598.56	700
2601.35	751
2604.14	722
2606.93	788
2609.72	784
2612.51	802
2615.3	812
2618.09	875
2620.87	861
2623.658	952
2626.44	1046
2629.22	1060
2632.01	1150
2634.79	1175
2637.57	1391
2640.35	1482
2643.13	1695
2645.9	1958
2648.68	2308
2651.45	2723
2654.23	3233
2657	3896
2659.77	4683
2662.55	5585
2665.32	6788
2668.09	8244
2670.85	9574
2673.62	10776
2676.39	12024
2679.15	12747
2681.92	13016
2684.68	12767
2687.45	11940
2690.21	11012
2692.968	9680
2695.73	8336
2698.49	7058
2701.24	5855
2704.001	4864
2706.76	4040
2709.51	3321
2712.27	2860
2715.02	2480
2717.772	2129
2720.52	1904
2723.27	1650
2726.02	1452
2728.77	1380
2731.52	1249
2734.26	1147
2737.01	1049
2739.75	1057
2742.5	991
2745.24	895
2747.98	894
2750.72	830
2753.46	811
2756.2	782
2758.939	762
2761.68	707
2764.41	696
2767.15	721
2769.88	696
2772.613	709
2775.345	626
2778.08	637
2780.81	633
2783.54	626
2786.26	633
2788.991	614
2791.72	611
2794.44	590
2797.17	601
2799.89	566
2802.61	574
2805.334	590
2808.05	573
2810.77	565
2813.49	551
2816.21	534
2818.93	585
2821.65	556
2824.36	555
2827.07	553
2829.79	548
2832.5	623
2835.21	548
2837.92	564
2840.63	510
2843.34	548
2846.05	547
2848.75	529
2851.46	533
2854.16	540
2856.87	517
2859.57	545
2862.272	500
2864.97	545
2867.67	569
2870.37	521
2873.07	539
2875.77	523
2878.46	494
2881.16	513
2883.85	500
2886.55	518
2889.24	549
2891.93	514
2894.62	516
2897.311	483
2900	486
2902.688	488
2905.37	488
2908.061	509
2910.75	488
2913.43	515
2916.11	521
2918.8	487
2921.48	512
2924.16	487
2926.84	503
2929.52	477
2932.19	500
2934.87	478
2937.55	461
2940.22	490
2942.89	493
2945.57	480
2948.24	487
2950.91	502
2953.58	458
2956.25	449
2958.92	471
2961.59	473
2964.25	476
2966.92	469
2969.59	461
2972.25	457
2974.91	420
2977.57	453
2980.24	447
2982.9	450
2985.55	454
2988.21	446
2990.87	441
2993.53	431
2996.18	450
2998.84	444
3001.49	433
3004.14	441
3006.8	449
3009.45	461
3012.1	430
3014.75	435
3017.396	455
3020.04	430
3022.69	441
3025.34	452
3027.98	416
3030.63	459
3033.27	448
3035.91	445
3038.55	437
3041.19	453
3043.83	458
3046.47	451
3049.11	408
3051.74	428
3054.38	436
3057.01	428
3059.65	452
3062.281	421
3064.91	418
3067.55	417
3070.17	438
3072.8	447
3075.43	445
3078.06	446
3080.69	433
3083.31	410
3085.94	412
3088.563	435
3091.19	407
3093.81	451
3096.43	437
3099.05	434
3101.67	422
3104.29	424
3106.91	435
3109.52	449
3112.14	438
3114.75	397
3117.37	402
3119.98	422
3122.59	397
3125.21	423
3127.82	415
3130.427	434
3133.04	389
3135.64	421
3138.251	402
3140.86	439
3143.46	424
3146.07	423
3148.67	440
3151.27	459
3153.874	407
3156.48	424
3159.08	416
3161.67	425
3164.27	432
3166.87	386
3169.47	413
3172.06	399
3174.66	441
3177.251	392
3179.85	413
3182.437	396
3185.03	410
3187.62	422
3190.21	456
3192.8	438
3195.38	411
3197.97	379
3200.56	376
3203.14	409
3205.73	423
3208.31	383
3210.89	395
3213.47	417
3216.054	413
3218.63	431
3221.21	462
3223.791	447
3226.37	408
3228.95	460
3231.52	488
3234.1	548
3236.67	624
3239.241	739
3241.81	868
3244.38	966
3246.96	1056
3249.52	1105
3252.09	1145
3254.66	997
3257.23	891
3259.79	802
3262.36	681
3264.92	582
3267.49	548
3270.05	481
3272.61	464
3275.17	415
3277.73	378
3280.29	384
3282.85	419
3285.41	385
3287.96	382
3290.52	388
3293.07	368
3295.63	377
3298.18	360
3300.73	390
3303.28	381
3305.83	370
3308.38	378
3310.93	363
3313.479	367
3316.03	341
3318.57	355
3321.12	362
3323.66	364
3326.21	345
3328.75	338
3331.29	311
3333.83	370
3336.37	364
3338.91	357
3341.448	357
3343.99	356
3346.52	347
3349.06	371
3351.593	353
3354.13	367
3356.66	353
3359.19	324
3361.72	370
3364.25	406
3366.79	354
3369.31	358
3371.84	355
3374.37	347
3376.9	351
3379.42	343
3381.95	354
3384.47	360
3386.99	383
3389.52	357
3392.04	347
3394.56	378
3397.08	329
3399.6	352
3402.12	320
3404.63	351
3407.15	360
3409.66	343
3412.179	351
3414.69	350
3417.21	352
3419.72	350
3422.23	337
3424.74	373
3427.25	362
3429.76	380
3432.27	350
3434.77	353
3437.28	343
3439.79	358
3442.29	356
3444.79	358
3447.3	355
3449.8	342
3452.3	337
3454.8	365
3457.3	351
3459.8	350
3462.3	334
3464.79	363
3467.29	346
3469.79	320
3472.28	313
3474.77	328
3477.27	387
3479.76	348
3482.25	362
3484.741	330
3487.23	303
3489.72	338
3492.21	312
3494.69	328
3497.18	314
3499.666	325
3502.15	321
3504.63	320
3507.12	319
3509.6	324
3512.08	318
3514.56	318
3517.04	327
3519.521	300
3522	324
3524.48	322
3526.95	305
3529.43	318
3531.9	354
3534.38	338
3536.85	318
3539.32	317
3541.79	352
3544.26	339
3546.73	335
3549.2	327
3551.67	325
3554.14	324
3556.61	324
3559.07	323
3561.54	329
3564	336
3566.46	301
3568.93	317
3571.39	332
3573.85	319
3576.31	322
3578.77	350
3581.23	323
3583.68	299
3586.14	319
3588.6	313
3591.052	310
3593.51	321
3595.96	344
3598.41	318
3600.865	325
3603.32	339
3605.77	301
3608.22	308
3610.665	302
3613.11	290
3615.56	300
3618.01	318
3620.45	299
3622.896	315
3625.34	297
3627.78	304
3630.22	285
3632.67	323
3635.11	283
3637.55	298
3639.99	296
3642.42	282
3644.86	303
3647.3	319
3649.73	299
3652.17	289
3654.6	309
3657.04	285
3659.47	306
3661.9	282