File: data/SEM_Raman_Data/KZPd_180112-3/Sample_20180112-3_1.txt
672.793	8.89712
676.3017	4.774806
679.809	6.52269
683.316	5.39082
686.818	2.37906
690.322	7.48785
693.824	7.34205
697.325	4.06671
700.825	4.78688
704.321	7.37741
707.8175	4.71375
711.313	3.42074
714.807	-0.0015573
718.3	2.8219
721.789	2.39097
725.279	3.08108
728.768	1.76709
732.255	4.07404
735.7392	0.00180773
739.224	3.92579
742.707	3.34585
746.187	0.76187
749.668	7.29923
753.147	1.08281
756.623	2.36248
760.1	5.76362
763.575	2.78611
767.047	2.55483
770.519	7.94514
773.9906	4.20691
777.4585	4.84006
780.927	5.21991
784.394	7.97135
787.858	7.84429
791.323	6.46405
794.784	10.4554
798.246	9.31861
801.705	8.9285
805.164	12.0354
808.6217	9.38908
812.076	9.114584
815.532	10.9622
818.984	10.3066
822.436	10.5232
825.885	11.9867
829.335	8.44742
832.782	7.78015
836.229	8.86017
839.673	8.68726
843.118	8.13671
846.559	6.9583
849.999	7.90221
853.44	9.84355
856.878	8.65715
860.316	7.96826
863.75	9.2767
867.186	7.08271
870.618	7.88611
874.049	9.06204
877.48	8.23563
880.909	13.9067
884.335	11.2004
887.763	10.2419
891.187	10.0309
894.612	11.69278
898.034	11.9773
901.454	9.00955
904.873	14.5396
908.293	13.1926
911.709	12.71837
915.124	14.992
918.54	15.7637
921.953	17.2832
925.364	27.5506
928.774	36.5661
932.184	46.2047
935.592	58.8412
938.998	71.8508
942.402	64.8585
945.8078	69.6144
949.21	66.6184
952.611	68.9955
956.01	69.1209
959.409	70.1195
962.805	60.7413
966.203	72.9865
969.597	70.8549
972.99	67.2216
976.3822	69.8367
979.773	67.0751
983.162	66.687
986.55	51.2972
989.936	35.9059
993.324	30.3881
996.708	26.11867
1000.09	27.9728
1003.47	20.9504
1006.852	19.6766
1010.23	19.0263
1013.61	17.6246
1016.98	15.4715
1020.36	12.1921
1023.73	12.4113
1027.11	13.5041
1030.48	9.59568
1033.85	4.81091
1037.22	4.02488
1040.58	2.11258
1043.95	6.57404
1047.31	4.90928
1050.68	5.11832
1054.04	4.82617
1057.4	4.78285
1060.76	3.86334
1064.12	5.442739
1067.47	4.52102
1070.83	5.72321
1074.18	5.04931
1077.54	-0.0006506489
1080.89	3.57334
1084.24	3.3963
1087.59	3.84319
1090.937	4.16414
1094.28	2.60909
1097.63	4.80308
1100.97	3.49611
1104.32	5.063201
1107.66	3.75433
1111	5.06959
1114.34	4.63395
1117.68	3.57244
1121.01	7.26002
1124.35	6.69679
1127.68	4.50772
1131.014	4.31782
1134.344	2.62708
1137.67	5.81058
1141.004	1.86829
1144.33	2.5502
1147.66	3.60639
1150.98	3.78682
1154.31	4.5915
1157.63	5.02049
1160.95	4.07376
1164.27	5.12632
1167.59	7.67821
1170.91	4.60444
1174.22	4.90498
1177.54	6.454896
1180.85	4.754148
1184.16	3.6778
1187.47	4.60084
1190.78	4.64825
1194.09	5.445086
1197.4	1.99132
1200.71	2.912003
1204.01	4.4571
1207.31	4.37667
1210.615	5.92068
1213.92	4.83917
1217.22	4.50713
1220.52	3.67459
1223.81	1.34153
1227.11	4.007997
1230.4	3.54896
1233.7	5.33947
1236.99	5.37949
1240.28	4.669055
1243.57	1.83319
1246.86	5.37187
1250.15	3.91014
1253.43	4.82297
1256.71	4.48538
1259.999	4.64741
1263.28	3.93402
1266.56	0.720254
1269.84	3.88109
1273.12	4.04156
1276.4	6.45167
1279.67	3.48641
1282.95	1.1458
1286.22	4.42984
1289.49	3.96356
1292.76	0.996939
1296.03	3.52999
1299.304	2.06275
1302.57	3.09517
1305.84	3.7523
1309.1	2.28412
1312.37	4.94068
1315.63	4.22193
1318.89	2.75291
1322.15	2.90862
1325.41	5.06406
1328.67	6.84426
1331.92	3.37418
1335.18	7.02887
1338.43	5.1833
1341.68	5.46251
1344.93	6.36648
1348.18	4.27023
1351.43	4.29877
1354.68	3.82708
1357.93	4.35518
1361.17	6.258081
1364.42	2.66078
1367.66	4.313282
1370.9	4.4656
1374.14	4.492723
1377.38	5.519671
1380.616	4.67144
1383.85	4.57304
1387.09	2.22447
1390.322	0.000741569
1393.55	5.15185
1396.79	3.42781
1400.02	4.32861
1403.25	3.72927
1406.47	2.87979
1409.7	2.90516
1412.93	4.80541
1416.15	5.58052
1419.38	3.1055
1422.6	4.00536
1425.82	3.5301
1429.04	3.42972
1432.25	4.32921
1435.47	2.72861
1438.69	5.002902
1441.9	1.90209
1445.12	4.67617
1448.33	2.45016
1451.54	3.34904
1454.75	3.99784
1457.96	2.77155
1461.17	5.04518
1464.37	3.31872
1467.58	3.84216
1470.78	3.365545
1473.98	2.88885
1477.19	2.03708
1480.39	2.560231
1483.58	3.33332
1486.78	3.35635
1489.98	2.62931
1493.17	1.9022
1496.37	1.92504
1499.563	4.44783
1502.75	2.34554
1505.94	4.61822
1509.14	3.14084
1512.32	3.28841
1515.51	2.31093
1518.7	2.70841
1521.88	2.73084
1525.06	5.628233
1528.25	3.77557
1531.43	4.54789
1534.61	2.19517
1537.79	2.5924
1540.96	4.2396
1544.14	1.76177
1547.32	3.78391
1550.489	3.18101
1553.66	3.32809
1556.83	7.22514
1560	5.37216
1563.17	9.01916
1566.34	11.6661
1569.51	14.5631
1572.675	19.335
1575.84	30.6069
1579	49.3788
1582.16	64.6507
1585.32	68.9225
1588.49	51.0694
1591.64	30.0912
1594.8	18.238
1597.96	11.8848
1601.11	4.40654
1604.27	7.1783
1607.42	5.575048
1610.57	2.72178
1613.72	3.61851
1616.871	4.39022
1620.02	4.911921
1623.17	5.80862
1626.31	4.45531
1629.46	4.85198
1632.6	4.99866
1635.74	4.02031
1638.88	3.16696
1642.02	5.06361
1645.16	0.960256
1648.3	4.48189
1651.44	2.00351
1654.57	3.150131
1657.7	3.29674
1660.84	2.31837
1663.97	2.71497
1667.1	0.9865669
1670.23	2.38316
1673.36	2.02975
1676.48	5.17633
1679.61	1.57293
1682.74	1.7195
1685.86	1.74107
1688.98	2.38764
1692.1	1.7842
1695.22	3.05576
1698.34	5.95231
1701.46	2.72386
1704.58	1.74541
1707.69	3.14194
1710.81	2.28848
1713.92	0.560007
1717.03	2.83153
1720.14	1.22805
1723.25	-0.000438805
1726.36	2.39607
1729.47	1.54257
1732.58	0.689062
1735.68	1.71055
1738.78	2.35703
1741.89	0.878503
1744.99	0.649968
1748.09	1.54643
1751.19	2.19288
1754.29	3.83932
1757.39	2.23575
1760.48	3.38216
1763.58	4.02857
1766.67	2.29997
1769.76	3.82136
1772.85	2.342746
1775.94	2.739115
1779.03	3.01046
1782.12	3.531806
1785.21	1.42814
1788.29	3.69946
1791.379	3.345763
1794.46	2.36704
1797.54	2.01332
1800.63	3.40958
1803.7	0.555813
1806.78	3.45204
1809.86	2.848253
1812.94	3.11945
1816.01	1.76561
1819.09	2.28677
1822.16	1.68291
1825.23	2.70401
1828.31	0.100113
1831.38	3.24619
1834.44	2.39223
1837.51	4.03827
1840.58	3.93427
1843.64	5.58025
1846.71	2.85122
1849.77	3.62215
1852.83	1.39306
1855.89	1.41394
1858.95	4.6848
1862.01	2.20562
1865.07	3.47643
1868.125	3.872191
1871.18	3.89294
1874.23	1.91365
1877.29	2.18434
1880.34	4.07998
1883.39	3.10061
1886.44	1.49619
1889.49	4.01675
1892.54	3.03726
1895.58	5.43276
1898.63	3.2032
1901.67	5.59861
1904.72	1.743994
1907.76	2.51433
1910.8	2.03464
1913.84	2.3049
1916.88	3.45012
1919.91	2.59531
1922.95	3.61545
1925.98	1.63555
1929.02	2.40562
1932.052	2.55063
1935.08	2.5706
1938.11	2.34053
1941.14	2.36043
1944.17	3.00526
1947.2	2.52505
1950.23	5.1698
1953.25	2.06451
1956.28	1.08416
1959.3	3.22876
1962.32	2.12331
1965.34	0.142813
1968.36	3.03728
1971.38	1.43168
1974.4	1.57602
1977.41	2.22032
1980.43	3.11456
1983.44	3.38375
1986.46	2.52789
1989.469	3.671977
1992.48	3.941
1995.49	0.959968
1998.498	3.10388
2001.51	3.99773
2004.512	5.76653
2007.52	2.91026
2010.52	3.30394
2013.52	2.32255
2016.527	3.591109
2019.53	2.3596
2022.528	3.00304
2025.527	2.89641
2028.52	4.03971
2031.52	0.807956
2034.52	3.32614
2037.51	4.84425
2040.51	3.6123
2043.5	3.75528
2046.49	2.2732
2049.478	2.91604
2052.47	1.80882
2055.46	1.95154
2058.44	2.84418
2061.43	1.98676
2064.41	2.75427
2067.4	1.2717
2070.38	2.78906
2073.36	2.55636
2076.34	1.823581
2079.32	0.840733
2082.3	3.48281
2085.28	3.62481
2088.25	1.141741
2091.23	1.9086
2094.2	2.30038
2097.17	3.942085
2100.146	1.70872
2103.12	1.72528
2106.09	1.49175
2109.05	2.13316
2112.02	3.02449
2114.99	3.91573
2117.95	2.5569
2120.92	1.823
2123.88	3.964005
2126.844	2.97994
2129.804	3.49579
2132.76	2.38657
2135.72	3.65227
2138.68	1.54288
2141.64	2.18342
2144.59	2.69886
2147.55	2.83924
2150.5	3.72953
2153.46	1.74474
2156.41	0.634858
2159.36	2.89991
2162.31	1.16486
2165.25	2.55474
2168.2	2.44453
2171.15	3.58424
2174.09	3.473865
2177.04	2.48841
2179.98	1.87786
2182.92	3.01724
2185.86	0.406524
2188.8	3.04572
2191.74	2.43484
2194.68	2.44887
2197.61	2.58781
2200.551	4.10168
2203.48	4.115447
2206.418	2.12913
2209.35	4.89274
2212.28	3.406249
2215.21	0.294673
2218.14	4.68302
2221.07	2.94627
2224	3.70944
2226.92	2.347512
2229.85	3.11051
2232.77	3.24841
2235.69	3.63623
2238.62	3.89896
2241.54	4.0366
2244.46	2.17416
2247.38	2.93662
2250.29	3.074
2253.21	3.08629
2256.13	4.47349
2259.04	2.36061
2261.95	0.74764
2264.87	2.63458
2267.78	3.02143
2270.69	1.53319
2273.6	3.91987
2276.51	3.431458
2279.41	3.06796
2282.32	4.07937
2285.22	3.4657
2288.13	2.97694
2291.031	2.61309
2293.93	4.12415
2296.834	4.38513
2299.73	2.64602
2302.63	2.40682
2305.53	2.91753
2308.43	0.678161
2311.32	2.4387
2314.22	3.32416
2317.11	4.08453
2320.01	1.96981
2322.9	3.355
2325.79	2.24011
2328.676	0.00013741
2331.56	2.88508
2334.45	2.39493
2337.34	5.2797
2340.23	3.66438
2343.11	4.67398
2345.99	4.30849
2348.87	2.19293
2351.76	1.45227
2354.64	3.46153
2357.52	3.84571
2360.39	0.854805
2363.27	3.61382
2366.15	3.74774
2369.02	3.13159
2371.9	3.015358
2374.77	3.39904
2377.64	2.65764
2380.51	2.91616
2383.38	2.2996
2386.25	6.30796
2389.12	2.69124
2391.99	1.19943
2394.853	4.33255
2397.72	1.34059
2400.58	3.34855
2403.45	3.98143
2406.31	3.114234
2409.17	4.87196
2412.03	2.25461
2414.89	2.26218
2417.74	3.26967
2420.6	5.40209
2423.46	4.53443
2426.31	3.9167
2429.16	4.42389
2432.02	3.68102
2434.87	5.56306
2437.72	5.82003
2440.57	7.82693
2443.42	7.58375
2446.27	8.9655
2449.11	7.72218
2451.96	11.1038
2454.8	7.985332
2457.65	8.2418
2460.49	8.8732
2463.33	7.00453
2466.17	8.26079
2469.01	7.51698
2471.85	7.77311
2474.69	6.02916
2477.53	5.53516
2480.36	6.79108
2483.19	6.79694
2486.03	4.05273
2488.86	5.43346
2491.69	3.314126
2494.52	4.19473
2497.35	5.57527
2500.18	3.45574
2503.01	2.83616
2505.84	3.71651
2508.66	2.47181
2511.49	5.47704
2514.31	4.23221
2517.13	4.73733
2519.95	3.99239
2522.78	4.372386
2525.59	3.50233
2528.41	5.25721
2531.23	3.88704
2534.05	3.89182
2536.86	3.64654
2539.68	4.52621
2542.491	3.905823
2545.3	4.03538
2548.12	3.53989
2550.93	1.91935
2553.74	5.17376
2556.54	4.30312
2559.35	4.43243
2562.16	4.18669
2564.96	3.4409
2567.77	2.57007
2570.57	3.94918
2573.375	4.82825
2576.177	5.08228
2578.978	4.58627
2581.78	4.7152
2584.58	4.8441
2587.375	4.47295
2590.17	4.35177
2592.97	5.23053
2595.762	5.98426
2598.56	5.86295
2601.35	6.49161
2604.14	6.12022
2606.93	5.24879
2609.72	6.62733
2612.51	6.13084
2615.3	6.7593
2618.09	9.13773
2620.87	6.76613
2623.658	9.5195
2626.44	10.6478
2629.22	8.02613
2632.01	10.6544
2634.79	15.9076
2637.57	18.9108
2640.35	21.414
2643.13	19.9172
2645.9	25.7953
2648.68	31.6734
2651.45	37.4265
2654.23	45.05452
2657	61.8075
2659.77	70.5605
2662.55	84.0635
2665.32	95.4415
2668.09	110.9444
2670.85	120.197
2673.62	132.3252
2676.39	130.203
2679.15	128.456
2681.92	123.959
2684.68	104.712
2687.45	97.4644
2690.21	80.3422
2692.968	70.5949
2695.73	52.4727
2698.49	48.3504
2701.24	36.6032
2704.001	30.4809
2706.76	29.2336
2709.51	21.9863
2712.27	20.61397
2715.02	15.7416
2717.772	15.7443
2720.52	10.87198
2723.27	12.7496
2726.02	10.3773
2728.77	9.37993
2731.52	9.13257
2734.26	7.510201
2737.01	9.76283
2739.75	4.89046
2742.5	6.01809
2745.24	5.02072
2747.98	6.52334
2750.72	5.27597
2753.46	6.2786
2756.2	5.53123
2758.939	6.65886
2761.68	4.4115
2764.41	4.03914
2767.15	3.79178
2769.88	4.91943
2772.613	4.92208
2775.345	3.42475
2778.08	3.55242
2780.81	3.80509
2783.54	3.30778
2786.26	4.43548
2788.991	3.93818
2791.72	2.6909
2794.44	3.318629
2797.17	2.07137
2799.89	4.19912
2802.61	2.70189
2805.334	1.32967
2808.05	3.58247
2810.77	3.33528
2813.49	2.08811
2816.21	1.96595
2818.93	1.343814
2821.65	3.596694
2824.36	3.47459
2827.07	0.9775095
2829.79	2.35545
2832.5	3.35841
2835.21	2.61139
2837.92	4.23939
2840.63	3.74241
2843.34	4.62046
2846.05	3.49853
2848.75	4.12662
2851.46	3.00474
2854.16	4.38288
2856.87	2.01105
2859.57	3.13925
2862.272	4.01747
2864.97	3.39572
2867.67	1.274
2870.37	1.65231
2873.07	3.65564
2875.77	2.03401
2878.46	2.1624
2881.16	4.04083
2883.85	1.54429
2886.55	1.29778
2889.24	3.3013
2891.93	3.67986
2894.62	2.18344
2897.311	2.56206
2900	2.19072
2902.688	2.69441
2905.37	2.32313
2908.061	1.576895
2910.75	1.58069
2913.43	2.33452
2916.11	2.58839
2918.8	4.0923
2921.48	1.84625
2924.16	2.60023
2926.84	2.97925
2929.52	3.60831
2932.19	2.86241
2934.87	2.11654
2937.55	1.24572
2940.22	-5.73613e-05
2942.89	3.0042
2945.57	3.6335
2948.24	2.88784
2950.91	2.89223
2953.58	1.14665
2956.25	2.77612
2958.92	3.53063
2961.59	1.41018
2964.25	0.9147808
2966.92	2.66942
2969.59	1.54911
2972.25	2.92883
2974.91	1.6836
2977.57	2.93842
2980.24	2.31828
2982.9	2.19819
2985.55	3.32814
2988.21	1.20813
2990.87	1.838173
2993.53	1.71826
2996.18	2.09839
2998.84	2.72857
3001.49	0.358797
3004.14	2.239068
3006.8	2.24439
3009.45	2.62475
3012.1	0.880161
3014.75	4.01062
3017.396	3.39112
3020.04	2.64667
3022.69	2.02727
3025.34	1.782919
3027.98	1.16361
3030.63	0.5443514
3033.27	1.675138
3035.91	1.55597
3038.55	3.18685
3041.19	3.94278
3043.83	0.823754
3046.47	3.204777
3049.11	3.33584
3051.74	1.71696
3054.38	3.97312
3057.01	1.35433
3059.65	1.98559
3062.281	1.74189
3064.91	2.24824
3067.55	1.62964
3070.17	0.761077
3072.8	2.64257
3075.43	3.7741
3078.06	1.905679
3080.69	1.53731
3083.31	2.79397
3085.94	2.80069
3088.563	1.43245
3091.19	1.81426
3093.81	1.44611
3096.43	2.328
3099.05	2.70994
3101.67	2.34192
3104.29	2.72394
3106.91	1.981011
3109.52	2.36312
3112.14	2.12027
3114.75	3.50246
3117.37	0.759698
3119.98	3.01698
3122.59	2.27429
3125.21	2.281652
3127.82	2.41405
3130.427	2.67149
3133.04	1.80396
3135.64	1.18647
3138.251	3.94403
3140.86	2.70162
3143.46	2.95924
3146.07	3.09191
3148.67	1.72461
3151.27	2.35734
3153.874	1.99011
3156.48	2.12291
3159.08	1.75575
3161.67	3.63862
3164.27	1.64652
3166.87	2.02946
3169.47	2.91242
3172.06	2.04542
3174.66	2.553443
3177.251	0.686497
3179.85	4.69458
3182.437	1.32769
3185.03	2.585829
3187.62	2.343992
3190.21	0.72718
3192.8	0.985392
3195.38	3.11863
3197.97	1.626886
3200.56	3.13517
3203.14	2.26847
3205.73	1.65179
3208.31	0.535132
3210.89	1.29349
3213.47	3.17687
3216.054	1.93526
3218.63	3.31867
3221.21	1.9521
3223.791	2.08553
3226.37	4.21899
3228.95	3.97745
3231.52	3.98592
3234.1	6.1194
3236.67	6.877892
3239.241	7.886385
3241.81	9.64489
3244.38	11.7784
3246.96	8.16191
3249.52	8.67043
3252.09	6.67894
3254.66	5.56246
3257.23	4.195972
3259.79	4.70449
3262.36	4.713
3264.92	1.2215
3267.49	2.98
3270.05	2.11349
3272.61	2.99697
3275.17	2.13045
3277.73	3.01391
3280.29	1.14736
3282.85	2.4058
3285.41	2.41422
3287.96	2.92262
3290.52	1.931
3293.07	1.93937
3295.63	1.57271
3298.18	1.33104
3300.73	1.96433
3303.28	1.4726
3305.83	1.10584
3308.38	3.114058
3310.93	0.997238
3313.479	2.25539
3316.03	2.13851
3318.57	2.27159
3321.12	1.77963
3323.66	1.16264
3326.21	1.9206
3328.75	1.678524
3331.29	3.3114
3333.83	1.94424
3336.37	1.57702
3338.91	1.83476
3341.448	0.4674387
3343.99	1.60007
3346.52	2.10765
3349.06	2.36516
3351.593	1.74762
3354.13	2.00502
3356.66	3.01236
3359.19	0.769629
3361.72	1.77683
3364.25	0.408968
3366.79	1.66604
3369.31	3.423028
3371.84	1.80495
3374.37	2.186785
3376.9	2.06855
3379.42	2.82523
3381.95	1.206826
3384.47	1.71334
3386.99	1.59476
3389.52	0.726093
3392.04	2.48233
3394.56	2.23848
3397.08	2.99453
3399.6	2.50048
3402.12	3.25633
3404.63	2.51208
3407.15	1.76772
3409.66	2.64825
3412.179	2.15367
3414.69	2.90898
3417.21	1.91417
3419.72	0.669248
3422.23	1.1742
3424.74	1.80403
3427.25	1.43374
3429.76	1.68831
3432.27	3.06776
3434.77	2.19707
3437.28	2.57624
3439.79	3.95528
3442.29	1.95918
3444.79	0.837929
3447.3	3.96653
3449.8	0.594991
3452.3	2.47329
3454.8	1.85144
3457.3	2.22943
3459.8	2.10726
3462.3	3.48493
3464.79	2.61243
3467.29	1.86476
3469.79	1.74192
3472.28	3.1189
3474.77	0.495711
3477.27	2.99734
3479.76	1.373777
3482.25	3.16276e-05
3484.741	3.0011
3487.23	2.626967
3489.72	2.37764
3492.21	2.50312
3494.69	2.628391
3497.18	1.753459
3499.666	2.12832
3502.15	2.62797
3504.63	1.6274
3507.12	1.87661
3509.6	1.875603
3512.08	2.99937
3514.56	3.74791
3517.04	2.62122
3519.521	2.86929
3522	1.86712
3524.48	1.98971
3526.95	2.36206
3529.43	1.48416
3531.9	2.856
3534.38	2.85259
3536.85	0.973926
3539.32	1.46999
3541.79	1.21579
3544.26	1.21133
3546.73	2.08159
3549.2	1.70157
3551.67	0.821267
3554.14	2.81568
3556.61	0.809811
3559.07	1.17865
3561.54	2.29719
3564	2.04043
3566.46	1.78336
3568.93	2.27599
3571.39	0.768311
3573.85	3.13531
3576.31	2.627
3578.77	1.61836
3581.23	0.984397
3583.68	2.1001
3586.14	2.21547
3588.6	1.8305
3591.052	2.32019
3593.51	2.434531
3595.96	1.79852
3598.41	2.28715
3600.865	1.52543
3603.32	0.88834
3605.77	0.875883
3608.22	1.488055
3610.665	2.474849
3613.11	1.83627
3615.56	1.6973
3618.01	2.43294
3620.45	1.04319
3622.896	2.52804
3625.34	1.137481
3627.78	1.12153
3630.22	0.605156
3632.67	0.7133671
3635.11	2.19616
3637.55	1.55354
3639.99	0.660472
3642.42	0.766975
3644.86	0.873051
3647.3	1.10367
3649.73	1.08384
3652.17	1.813575
3654.6	0.4178392
3657.04	2.52164
3659.47	-1.42281e-05
3661.9	0.352848