File: data/SEM_Raman_Data/KZPd_180416-2/SAMPLE.txt
672.793	2908
676.3017	2881
679.809	2828
683.316	2760
686.818	2736
690.322	2516
693.824	2492
697.325	2457
700.825	2465
704.321	2493
707.8175	2345
711.313	2256
714.807	2304
718.3	2227
721.789	2260
725.279	2209
728.768	2203
732.255	2132
735.7392	2084
739.224	2112
742.707	2122
746.187	2153
749.668	2143
753.147	2140
756.623	2223
760.1	2169
763.575	2146
767.047	2094
770.519	2115
773.9906	2135
777.4585	2151
780.927	2111
784.394	2165
787.858	2108
791.323	2149
794.784	2189
798.246	2125
801.705	2175
805.164	2217
808.6217	2113
812.076	2279
815.532	2174
818.984	2255
822.436	2243
825.885	2164
829.335	2186
832.782	2104
836.229	2048
839.673	2058
843.118	2053
846.559	2068
849.999	2069
853.44	2002
856.878	2048
860.316	1943
863.75	2050
867.186	2028
870.618	1991
874.049	2023
877.48	1989
880.909	2012
884.335	2021
887.763	2035
891.187	2046
894.612	2025
898.034	2091
901.454	2007
904.873	2137
908.293	2025
911.709	2127
915.124	2188
918.54	2270
921.953	2244
925.364	2325
928.774	2851
932.184	3572
935.592	4257
938.998	5146
942.402	5731
945.8078	5703
949.21	5553
952.611	5564
956.01	5435
959.409	5441
962.805	5611
966.203	5684
969.597	5462
972.99	5699
976.3822	5614
979.773	5569
983.162	5525
986.55	5110
989.936	4308
993.324	3512
996.708	3104
1000.09	2741
1003.47	2504
1006.852	2462
1010.23	2385
1013.61	2171
1016.98	1934
1020.36	1962
1023.73	1771
1027.11	1780
1030.48	1615
1033.85	1495
1037.22	1478
1040.58	1396
1043.95	1395
1047.31	1369
1050.68	1329
1054.04	1302
1057.4	1275
1060.76	1228
1064.12	1295
1067.47	1252
1070.83	1269
1074.18	1249
1077.54	1204
1080.89	1236
1084.24	1216
1087.59	1272
1090.937	1177
1094.28	1248
1097.63	1176
1100.97	1189
1104.32	1202
1107.66	1176
1111	1201
1114.34	1182
1117.68	1177
1121.01	1119
1124.35	1196
1127.68	1157
1131.014	1180
1134.344	1160
1137.67	1175
1141.004	1107
1144.33	1160
1147.66	1119
1150.98	1136
1154.31	1144
1157.63	1134
1160.95	1068
1164.27	1166
1167.59	1172
1170.91	1089
1174.22	1033
1177.54	1092
1180.85	1092
1184.16	1067
1187.47	1091
1190.78	1112
1194.09	1069
1197.4	1037
1200.71	1053
1204.01	1073
1207.31	1075
1210.615	1047
1213.92	1045
1217.22	1053
1220.52	1021
1223.81	1022
1227.11	1053
1230.4	1041
1233.7	1024
1236.99	1048
1240.28	1078
1243.57	1042
1246.86	990
1250.15	980
1253.43	984
1256.71	1041
1259.999	991
1263.28	1048
1266.56	1056
1269.84	1025
1273.12	1005
1276.4	980
1279.67	1008
1282.95	982
1286.22	1020
1289.49	1023
1292.76	995
1296.03	979
1299.304	957
1302.57	973
1305.84	982
1309.1	1004
1312.37	975
1315.63	1004
1318.89	977
1322.15	1038
1325.41	1014
1328.67	1049
1331.92	1072
1335.18	1175
1338.43	1202
1341.68	1225
1344.93	1274
1348.18	1278
1351.43	1266
1354.68	1169
1357.93	1119
1361.17	1118
1364.42	1052
1367.66	1056
1370.9	1059
1374.14	1019
1377.38	1009
1380.616	927
1383.85	988
1387.09	982
1390.322	983
1393.55	979
1396.79	980
1400.02	999
1403.25	982
1406.47	935
1409.7	950
1412.93	896
1416.15	889
1419.38	889
1422.6	922
1425.82	878
1429.04	940
1432.25	894
1435.47	900
1438.69	899
1441.9	894
1445.12	902
1448.33	898
1451.54	890
1454.75	838
1457.96	880
1461.17	861
1464.37	857
1467.58	897
1470.78	852
1473.98	864
1477.19	899
1480.39	892
1483.58	840
1486.78	822
1489.98	826
1493.17	873
1496.37	871
1499.563	863
1502.75	821
1505.94	835
1509.14	825
1512.32	871
1515.51	838
1518.7	888
1521.88	855
1525.06	825
1528.25	852
1531.43	825
1534.61	871
1537.79	860
1540.96	886
1544.14	859
1547.32	898
1550.489	890
1553.66	930
1556.83	962
1560	1033
1563.17	1083
1566.34	1246
1569.51	1491
1572.675	1724
1575.84	2140
1579	2655
1582.16	3197
1585.32	4096
1588.49	5157
1591.64	5958
1594.8	5372
1597.96	3687
1601.11	2462
1604.27	1773
1607.42	1413
1610.57	1193
1613.72	1068
1616.871	1073
1620.02	1008
1623.17	932
1626.31	969
1629.46	913
1632.6	889
1635.74	865
1638.88	840
1642.02	840
1645.16	747
1648.3	759
1651.44	764
1654.57	775
1657.7	755
1660.84	780
1663.97	733
1667.1	687
1670.23	737
1673.36	716
1676.48	668
1679.61	717
1682.74	742
1685.86	664
1688.98	676
1692.1	677
1695.22	712
1698.34	712
1701.46	660
1704.58	662
1707.69	647
1710.81	668
1713.92	710
1717.03	648
1720.14	660
1723.25	666
1726.36	659
1729.47	685
1732.58	646
1735.68	651
1738.78	703
1741.89	713
1744.99	648
1748.09	676
1751.19	642
1754.29	650
1757.39	655
1760.48	685
1763.58	661
1766.67	650
1769.76	657
1772.85	662
1775.94	652
1779.03	707
1782.12	639
1785.21	669
1788.29	642
1791.379	682
1794.46	621
1797.54	659
1800.63	668
1803.7	647
1806.78	644
1809.86	644
1812.94	700
1816.01	662
1819.09	656
1822.16	640
1825.23	631
1828.31	664
1831.38	651
1834.44	661
1837.51	650
1840.58	631
1843.64	628
1846.71	664
1849.77	648
1852.83	642
1855.89	673
1858.95	666
1862.01	629
1865.07	667
1868.125	667
1871.18	679
1874.23	627
1877.29	657
1880.34	658
1883.39	618
1886.44	636
1889.49	609
1892.54	672
1895.58	607
1898.63	583
1901.67	639
1904.72	648
1907.76	577
1910.8	603
1913.84	632
1916.88	605
1919.91	602
1922.95	572
1925.98	604
1929.02	583
1932.052	603
1935.08	622
1938.11	591
1941.14	546
1944.17	580
1947.2	612
1950.23	557
1953.25	587
1956.28	601
1959.3	609
1962.32	588
1965.34	589
1968.36	592
1971.38	599
1974.4	592
1977.41	613
1980.43	647
1983.44	582
1986.46	604
1989.469	616
1992.48	623
1995.49	571
1998.498	597
2001.51	603
2004.512	585
2007.52	564
2010.52	576
2013.52	582
2016.527	556
2019.53	594
2022.528	579
2025.527	582
2028.52	555
2031.52	536
2034.52	551
2037.51	539
2040.51	555
2043.5	539
2046.49	560
2049.478	553
2052.47	550
2055.46	529
2058.44	524
2061.43	517
2064.41	542
2067.4	536
2070.38	517
2073.36	539
2076.34	511
2079.32	544
2082.3	493
2085.28	512
2088.25	561
2091.23	503
2094.2	560
2097.17	497
2100.146	553
2103.12	543
2106.09	543
2109.05	526
2112.02	543
2114.99	530
2117.95	523
2120.92	531
2123.88	482
2126.844	530
2129.804	516
2132.76	501
2135.72	500
2138.68	505
2141.64	516
2144.59	527
2147.55	526
2150.5	507
2153.46	519
2156.41	516
2159.36	488
2162.31	482
2165.25	503
2168.2	505
2171.15	512
2174.09	519
2177.04	484
2179.98	478
2182.92	505
2185.86	482
2188.8	492
2191.74	489
2194.68	486
2197.61	496
2200.551	479
2203.48	482
2206.418	493
2209.35	510
2212.28	497
2215.21	494
2218.14	488
2221.07	471
2224	483
2226.92	502
2229.85	502
2232.77	503
2235.69	497
2238.62	533
2241.54	518
2244.46	534
2247.38	479
2250.29	467
2253.21	513
2256.13	519
2259.04	529
2261.95	502
2264.87	492
2267.78	487
2270.69	510
2273.6	506
2276.51	520
2279.41	474
2282.32	486
2285.22	502
2288.13	490
2291.031	496
2293.93	491
2296.834	515
2299.73	491
2302.63	504
2305.53	474
2308.43	500
2311.32	479
2314.22	486
2317.11	456
2320.01	477
2322.9	512
2325.79	478
2328.676	459
2331.56	452
2334.45	480
2337.34	470
2340.23	460
2343.11	514
2345.99	445
2348.87	436
2351.76	484
2354.64	450
2357.52	461
2360.39	466
2363.27	481
2366.15	478
2369.02	464
2371.9	484
2374.77	486
2377.64	480
2380.51	481
2383.38	478
2386.25	463
2389.12	501
2391.99	538
2394.853	471
2397.72	506
2400.58	478
2403.45	461
2406.31	477
2409.17	524
2412.03	514
2414.89	567
2417.74	513
2420.6	509
2423.46	476
2426.31	544
2429.16	510
2432.02	544
2434.87	556
2437.72	554
2440.57	597
2443.42	590
2446.27	677
2449.11	687
2451.96	784
2454.8	842
2457.65	862
2460.49	847
2463.33	896
2466.17	890
2469.01	858
2471.85	793
2474.69	810
2477.53	765
2480.36	742
2483.19	691
2486.03	692
2488.86	680
2491.69	671
2494.52	626
2497.35	639
2500.18	641
2503.01	616
2505.84	581
2508.66	620
2511.49	571
2514.31	594
2517.13	545
2519.95	556
2522.78	584
2525.59	549
2528.41	577
2531.23	557
2534.05	529
2536.86	550
2539.68	530
2542.491	535
2545.3	522
2548.12	561
2550.93	557
2553.74	534
2556.54	531
2559.35	534
2562.16	523
2564.96	510
2567.77	534
2570.57	559
2573.375	514
2576.177	541
2578.978	538
2581.78	535
2584.58	556
2587.375	558
2590.17	548
2592.97	576
2595.762	591
2598.56	576
2601.35	602
2604.14	609
2606.93	653
2609.72	643
2612.51	660
2615.3	654
2618.09	687
2620.87	758
2623.658	776
2626.44	858
2629.22	896
2632.01	946
2634.79	1002
2637.57	1099
2640.35	1219
2643.13	1394
2645.9	1533
2648.68	1825
2651.45	2016
2654.23	2516
2657	2887
2659.77	3335
2662.55	3967
2665.32	4867
2668.09	5699
2670.85	6669
2673.62	7803
2676.39	8972
2679.15	9958
2681.92	10770
2684.68	10901
2687.45	10979
2690.21	10453
2692.968	9743
2695.73	8849
2698.49	7716
2701.24	6707
2704.001	5873
2706.76	4821
2709.51	4110
2712.27	3407
2715.02	2904
2717.772	2471
2720.52	2208
2723.27	1930
2726.02	1662
2728.77	1515
2731.52	1326
2734.26	1235
2737.01	1097
2739.75	1003
2742.5	959
2745.24	892
2747.98	832
2750.72	792
2753.46	759
2756.2	708
2758.939	695
2761.68	666
2764.41	647
2767.15	662
2769.88	632
2772.613	593
2775.345	581
2778.08	581
2780.81	552
2783.54	562
2786.26	554
2788.991	509
2791.72	531
2794.44	498
2797.17	509
2799.89	506
2802.61	501
2805.334	465
2808.05	510
2810.77	496
2813.49	465
2816.21	478
2818.93	479
2821.65	450
2824.36	455
2827.07	461
2829.79	462
2832.5	478
2835.21	458
2837.92	461
2840.63	439
2843.34	459
2846.05	451
2848.75	417
2851.46	466
2854.16	439
2856.87	407
2859.57	450
2862.272	449
2864.97	463
2867.67	425
2870.37	432
2873.07	460
2875.77	407
2878.46	430
2881.16	445
2883.85	416
2886.55	413
2889.24	389
2891.93	411
2894.62	439
2897.311	450
2900	414
2902.688	399
2905.37	412
2908.061	392
2910.75	397
2913.43	428
2916.11	379
2918.8	417
2921.48	402
2924.16	422
2926.84	368
2929.52	446
2932.19	394
2934.87	414
2937.55	402
2940.22	426
2942.89	408
2945.57	421
2948.24	403
2950.91	397
2953.58	399
2956.25	397
2958.92	410
2961.59	393
2964.25	390
2966.92	388
2969.59	421
2972.25	394
2974.91	360
2977.57	370
2980.24	377
2982.9	372
2985.55	384
2988.21	364
2990.87	392
2993.53	363
2996.18	393
2998.84	361
3001.49	378
3004.14	380
3006.8	374
3009.45	337
3012.1	365
3014.75	355
3017.396	367
3020.04	373
3022.69	363
3025.34	362
3027.98	365
3030.63	350
3033.27	352
3035.91	341
3038.55	369
3041.19	369
3043.83	364
3046.47	361
3049.11	364
3051.74	338
3054.38	344
3057.01	377
3059.65	372
3062.281	372
3064.91	338
3067.55	340
3070.17	334
3072.8	340
3075.43	347
3078.06	342
3080.69	355
3083.31	340
3085.94	351
3088.563	379
3091.19	356
3093.81	344
3096.43	351
3099.05	331
3101.67	339
3104.29	349
3106.91	361
3109.52	351
3112.14	347
3114.75	343
3117.37	340
3119.98	344
3122.59	364
3125.21	339
3127.82	354
3130.427	356
3133.04	359
3135.64	331
3138.251	356
3140.86	356
3143.46	318
3146.07	351
3148.67	321
3151.27	363
3153.874	361
3156.48	316
3159.08	349
3161.67	349
3164.27	310
3166.87	363
3169.47	364
3172.06	349
3174.66	352
3177.251	365
3179.85	354
3182.437	329
3185.03	344
3187.62	365
3190.21	348
3192.8	330
3195.38	345
3197.97	374
3200.56	348
3203.14	339
3205.73	331
3208.31	367
3210.89	332
3213.47	324
3216.054	326
3218.63	331
3221.21	386
3223.791	374
3226.37	344
3228.95	351
3231.52	409
3234.1	463
3236.67	529
3239.241	562
3241.81	610
3244.38	684
3246.96	806
3249.52	822
3252.09	886
3254.66	884
3257.23	845
3259.79	791
3262.36	677
3264.92	661
3267.49	548
3270.05	468
3272.61	457
3275.17	412
3277.73	382
3280.29	376
3282.85	348
3285.41	340
3287.96	334
3290.52	332
3293.07	342
3295.63	336
3298.18	319
3300.73	310
3303.28	325
3305.83	278
3308.38	300
3310.93	301
3313.479	291
3316.03	324
3318.57	302
3321.12	315
3323.66	303
3326.21	309
3328.75	322
3331.29	312
3333.83	264
3336.37	318
3338.91	279
3341.448	308
3343.99	298
3346.52	305
3349.06	309
3351.593	305
3354.13	289
3356.66	305
3359.19	261
3361.72	287
3364.25	299
3366.79	306
3369.31	292
3371.84	301
3374.37	288
3376.9	305
3379.42	310
3381.95	311
3384.47	321
3386.99	268
3389.52	269
3392.04	311
3394.56	314
3397.08	336
3399.6	328
3402.12	300
3404.63	300
3407.15	308
3409.66	305
3412.179	294
3414.69	281
3417.21	291
3419.72	275
3422.23	290
3424.74	286
3427.25	291
3429.76	333
3432.27	321
3434.77	292
3437.28	290
3439.79	304
3442.29	321
3444.79	295
3447.3	299
3449.8	288
3452.3	304
3454.8	299
3457.3	287
3459.8	302
3462.3	289
3464.79	296
3467.29	291
3469.79	273
3472.28	299
3474.77	294
3477.27	261
3479.76	278
3482.25	284
3484.741	275
3487.23	274
3489.72	274
3492.21	296
3494.69	297
3497.18	293
3499.666	281
3502.15	275
3504.63	284
3507.12	297
3509.6	292
3512.08	277
3514.56	297
3517.04	278
3519.521	244
3522	296
3524.48	279
3526.95	258
3529.43	281
3531.9	277
3534.38	283
3536.85	270
3539.32	299
3541.79	273
3544.26	285
3546.73	280
3549.2	278
3551.67	284
3554.14	328
3556.61	277
3559.07	271
3561.54	309
3564	271
3566.46	284
3568.93	262
3571.39	276
3573.85	282
3576.31	301
3578.77	282
3581.23	289
3583.68	272
3586.14	274
3588.6	291
3591.052	285
3593.51	270
3595.96	276
3598.41	286
3600.865	279
3603.32	254
3605.77	266
3608.22	269
3610.665	275
3613.11	250
3615.56	270
3618.01	256
3620.45	253
3622.896	241
3625.34	260
3627.78	261
3630.22	264
3632.67	272
3635.11	256
3637.55	266
3639.99	263
3642.42	256
3644.86	264
3647.3	273
3649.73	281
3652.17	269
3654.6	245
3657.04	281
3659.47	233
3661.9	255