File: data/SEM_Raman_Data/KZPd_180416-1/sample.txt
672.793	3216
676.3017	3218
679.809	3146
683.316	3034
686.818	2887
690.322	2874
693.824	2803
697.325	2810
700.825	2674
704.321	2708
707.8175	2556
711.313	2616
714.807	2499
718.3	2483
721.789	2385
725.279	2472
728.768	2441
732.255	2365
735.7392	2282
739.224	2331
742.707	2332
746.187	2301
749.668	2319
753.147	2336
756.623	2375
760.1	2305
763.575	2342
767.047	2309
770.519	2345
773.9906	2362
777.4585	2353
780.927	2371
784.394	2398
787.858	2235
791.323	2245
794.784	2339
798.246	2374
801.705	2420
805.164	2399
808.6217	2338
812.076	2391
815.532	2437
818.984	2444
822.436	2395
825.885	2441
829.335	2461
832.782	2283
836.229	2338
839.673	2254
843.118	2232
846.559	2249
849.999	2209
853.44	2236
856.878	2311
860.316	2250
863.75	2191
867.186	2222
870.618	2171
874.049	2238
877.48	2201
880.909	2174
884.335	2178
887.763	2245
891.187	2205
894.612	2233
898.034	2228
901.454	2186
904.873	2206
908.293	2268
911.709	2292
915.124	2381
918.54	2351
921.953	2404
925.364	2709
928.774	2888
932.184	3640
935.592	4482
938.998	5380
942.402	6110
945.8078	6219
949.21	6021
952.611	6009
956.01	5873
959.409	5919
962.805	6071
966.203	5959
969.597	6074
972.99	6201
976.3822	5968
979.773	6075
983.162	6021
986.55	5586
989.936	4929
993.324	3998
996.708	3443
1000.09	3043
1003.47	2800
1006.852	2596
1010.23	2493
1013.61	2402
1016.98	2197
1020.36	2157
1023.73	1953
1027.11	1887
1030.48	1748
1033.85	1712
1037.22	1550
1040.58	1569
1043.95	1462
1047.31	1473
1050.68	1404
1054.04	1437
1057.4	1388
1060.76	1383
1064.12	1355
1067.47	1299
1070.83	1387
1074.18	1357
1077.54	1343
1080.89	1301
1084.24	1295
1087.59	1270
1090.937	1303
1094.28	1288
1097.63	1298
1100.97	1311
1104.32	1257
1107.66	1311
1111	1277
1114.34	1217
1117.68	1329
1121.01	1230
1124.35	1244
1127.68	1264
1131.014	1256
1134.344	1215
1137.67	1268
1141.004	1269
1144.33	1221
1147.66	1270
1150.98	1204
1154.31	1190
1157.63	1198
1160.95	1224
1164.27	1233
1167.59	1202
1170.91	1211
1174.22	1192
1177.54	1170
1180.85	1197
1184.16	1203
1187.47	1204
1190.78	1166
1194.09	1159
1197.4	1149
1200.71	1165
1204.01	1142
1207.31	1106
1210.615	1154
1213.92	1142
1217.22	1150
1220.52	1066
1223.81	1134
1227.11	1140
1230.4	1068
1233.7	1124
1236.99	1094
1240.28	1081
1243.57	1086
1246.86	1068
1250.15	1056
1253.43	1093
1256.71	1066
1259.999	1090
1263.28	1127
1266.56	1098
1269.84	1065
1273.12	1095
1276.4	1093
1279.67	1063
1282.95	1071
1286.22	1053
1289.49	1039
1292.76	1090
1296.03	1053
1299.304	1140
1302.57	1081
1305.84	1044
1309.1	1055
1312.37	1022
1315.63	1046
1318.89	1050
1322.15	1056
1325.41	1058
1328.67	1046
1331.92	1037
1335.18	1079
1338.43	1076
1341.68	1088
1344.93	1064
1348.18	1050
1351.43	1071
1354.68	1031
1357.93	1074
1361.17	1058
1364.42	990
1367.66	1041
1370.9	1015
1374.14	1015
1377.38	984
1380.616	1030
1383.85	1011
1387.09	1042
1390.322	1032
1393.55	1006
1396.79	1017
1400.02	953
1403.25	982
1406.47	1009
1409.7	971
1412.93	974
1416.15	968
1419.38	990
1422.6	964
1425.82	965
1429.04	936
1432.25	961
1435.47	945
1438.69	941
1441.9	922
1445.12	964
1448.33	933
1451.54	938
1454.75	953
1457.96	955
1461.17	964
1464.37	874
1467.58	896
1470.78	871
1473.98	951
1477.19	836
1480.39	910
1483.58	934
1486.78	925
1489.98	920
1493.17	906
1496.37	892
1499.563	910
1502.75	918
1505.94	938
1509.14	942
1512.32	909
1515.51	925
1518.7	932
1521.88	969
1525.06	890
1528.25	916
1531.43	864
1534.61	917
1537.79	901
1540.96	864
1544.14	878
1547.32	913
1550.489	929
1553.66	947
1556.83	948
1560	968
1563.17	1024
1566.34	1183
1569.51	1231
1572.675	1445
1575.84	1695
1579	2206
1582.16	3131
1585.32	5122
1588.49	8144
1591.64	9047
1594.8	5796
1597.96	2964
1601.11	1770
1604.27	1383
1607.42	1147
1610.57	1034
1613.72	997
1616.871	989
1620.02	985
1623.17	989
1626.31	943
1629.46	891
1632.6	829
1635.74	847
1638.88	792
1642.02	830
1645.16	747
1648.3	788
1651.44	791
1654.57	758
1657.7	781
1660.84	786
1663.97	808
1667.1	770
1670.23	749
1673.36	751
1676.48	747
1679.61	777
1682.74	697
1685.86	729
1688.98	736
1692.1	742
1695.22	722
1698.34	701
1701.46	699
1704.58	704
1707.69	672
1710.81	715
1713.92	698
1717.03	674
1720.14	703
1723.25	701
1726.36	714
1729.47	688
1732.58	713
1735.68	682
1738.78	700
1741.89	685
1744.99	701
1748.09	687
1751.19	698
1754.29	668
1757.39	695
1760.48	689
1763.58	722
1766.67	658
1769.76	671
1772.85	709
1775.94	700
1779.03	654
1782.12	690
1785.21	649
1788.29	705
1791.379	713
1794.46	674
1797.54	713
1800.63	666
1803.7	693
1806.78	714
1809.86	658
1812.94	731
1816.01	676
1819.09	655
1822.16	706
1825.23	698
1828.31	659
1831.38	677
1834.44	671
1837.51	675
1840.58	707
1843.64	695
1846.71	650
1849.77	705
1852.83	682
1855.89	748
1858.95	699
1862.01	696
1865.07	684
1868.125	685
1871.18	687
1874.23	641
1877.29	664
1880.34	651
1883.39	668
1886.44	669
1889.49	695
1892.54	635
1895.58	628
1898.63	597
1901.67	599
1904.72	602
1907.76	625
1910.8	632
1913.84	622
1916.88	648
1919.91	597
1922.95	619
1925.98	622
1929.02	636
1932.052	680
1935.08	632
1938.11	607
1941.14	622
1944.17	624
1947.2	610
1950.23	610
1953.25	633
1956.28	606
1959.3	626
1962.32	593
1965.34	581
1968.36	630
1971.38	644
1974.4	603
1977.41	586
1980.43	629
1983.44	596
1986.46	630
1989.469	607
1992.48	616
1995.49	622
1998.498	625
2001.51	612
2004.512	613
2007.52	622
2010.52	577
2013.52	628
2016.527	603
2019.53	619
2022.528	603
2025.527	602
2028.52	572
2031.52	602
2034.52	596
2037.51	581
2040.51	572
2043.5	593
2046.49	576
2049.478	526
2052.47	571
2055.46	552
2058.44	569
2061.43	537
2064.41	568
2067.4	530
2070.38	560
2073.36	599
2076.34	541
2079.32	516
2082.3	528
2085.28	557
2088.25	543
2091.23	545
2094.2	519
2097.17	517
2100.146	542
2103.12	557
2106.09	536
2109.05	530
2112.02	492
2114.99	543
2117.95	531
2120.92	540
2123.88	506
2126.844	510
2129.804	503
2132.76	554
2135.72	507
2138.68	518
2141.64	524
2144.59	518
2147.55	483
2150.5	463
2153.46	499
2156.41	487
2159.36	536
2162.31	488
2165.25	512
2168.2	506
2171.15	497
2174.09	520
2177.04	485
2179.98	484
2182.92	469
2185.86	503
2188.8	536
2191.74	461
2194.68	523
2197.61	460
2200.551	510
2203.48	497
2206.418	467
2209.35	510
2212.28	501
2215.21	514
2218.14	518
2221.07	484
2224	515
2226.92	493
2229.85	517
2232.77	496
2235.69	483
2238.62	513
2241.54	497
2244.46	504
2247.38	499
2250.29	503
2253.21	485
2256.13	467
2259.04	543
2261.95	465
2264.87	502
2267.78	541
2270.69	540
2273.6	488
2276.51	473
2279.41	516
2282.32	493
2285.22	494
2288.13	479
2291.031	517
2293.93	473
2296.834	492
2299.73	468
2302.63	496
2305.53	453
2308.43	498
2311.32	489
2314.22	450
2317.11	480
2320.01	456
2322.9	457
2325.79	463
2328.676	479
2331.56	517
2334.45	462
2337.34	446
2340.23	480
2343.11	446
2345.99	485
2348.87	481
2351.76	480
2354.64	473
2357.52	472
2360.39	507
2363.27	468
2366.15	470
2369.02	466
2371.9	471
2374.77	489
2377.64	455
2380.51	490
2383.38	467
2386.25	503
2389.12	487
2391.99	475
2394.853	511
2397.72	508
2400.58	485
2403.45	465
2406.31	499
2409.17	523
2412.03	509
2414.89	510
2417.74	515
2420.6	492
2423.46	500
2426.31	572
2429.16	542
2432.02	569
2434.87	581
2437.72	648
2440.57	628
2443.42	707
2446.27	750
2449.11	857
2451.96	846
2454.8	850
2457.65	845
2460.49	820
2463.33	744
2466.17	714
2469.01	700
2471.85	673
2474.69	677
2477.53	618
2480.36	594
2483.19	600
2486.03	607
2488.86	577
2491.69	563
2494.52	537
2497.35	575
2500.18	554
2503.01	548
2505.84	497
2508.66	558
2511.49	513
2514.31	537
2517.13	502
2519.95	489
2522.78	478
2525.59	521
2528.41	489
2531.23	525
2534.05	492
2536.86	525
2539.68	497
2542.491	505
2545.3	522
2548.12	513
2550.93	503
2553.74	509
2556.54	526
2559.35	524
2562.16	523
2564.96	520
2567.77	532
2570.57	517
2573.375	520
2576.177	531
2578.978	546
2581.78	530
2584.58	539
2587.375	548
2590.17	580
2592.97	575
2595.762	593
2598.56	617
2601.35	623
2604.14	634
2606.93	691
2609.72	677
2612.51	718
2615.3	777
2618.09	769
2620.87	827
2623.658	894
2626.44	981
2629.22	1038
2632.01	1137
2634.79	1235
2637.57	1417
2640.35	1594
2643.13	1802
2645.9	2170
2648.68	2467
2651.45	2896
2654.23	3450
2657	4129
2659.77	4854
2662.55	5695
2665.32	6724
2668.09	7747
2670.85	8800
2673.62	9574
2676.39	9942
2679.15	10143
2681.92	9788
2684.68	8975
2687.45	8052
2690.21	6821
2692.968	5832
2695.73	4624
2698.49	3901
2701.24	3233
2704.001	2688
2706.76	2291
2709.51	1933
2712.27	1685
2715.02	1468
2717.772	1359
2720.52	1194
2723.27	1071
2726.02	1005
2728.77	893
2731.52	818
2734.26	744
2737.01	711
2739.75	692
2742.5	668
2745.24	669
2747.98	644
2750.72	564
2753.46	566
2756.2	590
2758.939	541
2761.68	530
2764.41	528
2767.15	488
2769.88	476
2772.613	494
2775.345	481
2778.08	484
2780.81	444
2783.54	473
2786.26	473
2788.991	452
2791.72	421
2794.44	452
2797.17	443
2799.89	421
2802.61	434
2805.334	439
2808.05	419
2810.77	405
2813.49	421
2816.21	429
2818.93	415
2821.65	423
2824.36	406
2827.07	420
2829.79	400
2832.5	403
2835.21	451
2837.92	408
2840.63	429
2843.34	422
2846.05	417
2848.75	378
2851.46	367
2854.16	391
2856.87	399
2859.57	412
2862.272	380
2864.97	424
2867.67	387
2870.37	370
2873.07	419
2875.77	391
2878.46	410
2881.16	400
2883.85	384
2886.55	371
2889.24	367
2891.93	408
2894.62	360
2897.311	374
2900	389
2902.688	365
2905.37	331
2908.061	344
2910.75	367
2913.43	359
2916.11	361
2918.8	372
2921.48	357
2924.16	369
2926.84	326
2929.52	340
2932.19	341
2934.87	354
2937.55	344
2940.22	347
2942.89	347
2945.57	328
2948.24	368
2950.91	328
2953.58	338
2956.25	359
2958.92	355
2961.59	359
2964.25	335
2966.92	343
2969.59	332
2972.25	354
2974.91	355
2977.57	361
2980.24	340
2982.9	306
2985.55	338
2988.21	310
2990.87	330
2993.53	344
2996.18	331
2998.84	345
3001.49	333
3004.14	355
3006.8	349
3009.45	332
3012.1	304
3014.75	331
3017.396	315
3020.04	318
3022.69	329
3025.34	327
3027.98	348
3030.63	315
3033.27	332
3035.91	302
3038.55	334
3041.19	349
3043.83	335
3046.47	349
3049.11	323
3051.74	328
3054.38	335
3057.01	334
3059.65	316
3062.281	349
3064.91	305
3067.55	332
3070.17	322
3072.8	316
3075.43	341
3078.06	356
3080.69	347
3083.31	300
3085.94	349
3088.563	365
3091.19	316
3093.81	307
3096.43	339
3099.05	318
3101.67	328
3104.29	312
3106.91	318
3109.52	296
3112.14	331
3114.75	299
3117.37	315
3119.98	312
3122.59	321
3125.21	326
3127.82	288
3130.427	321
3133.04	310
3135.64	301
3138.251	310
3140.86	331
3143.46	321
3146.07	322
3148.67	296
3151.27	305
3153.874	311
3156.48	318
3159.08	311
3161.67	312
3164.27	291
3166.87	326
3169.47	310
3172.06	302
3174.66	308
3177.251	296
3179.85	323
3182.437	296
3185.03	323
3187.62	307
3190.21	294
3192.8	310
3195.38	305
3197.97	303
3200.56	295
3203.14	323
3205.73	321
3208.31	317
3210.89	323
3213.47	317
3216.054	329
3218.63	328
3221.21	309
3223.791	356
3226.37	379
3228.95	412
3231.52	471
3234.1	506
3236.67	617
3239.241	718
3241.81	789
3244.38	865
3246.96	854
3249.52	778
3252.09	681
3254.66	561
3257.23	426
3259.79	400
3262.36	371
3264.92	330
3267.49	284
3270.05	299
3272.61	285
3275.17	287
3277.73	306
3280.29	309
3282.85	292
3285.41	272
3287.96	269
3290.52	298
3293.07	283
3295.63	249
3298.18	298
3300.73	281
3303.28	298
3305.83	308
3308.38	281
3310.93	302
3313.479	297
3316.03	275
3318.57	275
3321.12	302
3323.66	272
3326.21	257
3328.75	274
3331.29	283
3333.83	267
3336.37	270
3338.91	268
3341.448	264
3343.99	274
3346.52	265
3349.06	268
3351.593	277
3354.13	273
3356.66	276
3359.19	295
3361.72	264
3364.25	286
3366.79	265
3369.31	282
3371.84	280
3374.37	281
3376.9	263
3379.42	261
3381.95	279
3384.47	270
3386.99	248
3389.52	253
3392.04	247
3394.56	252
3397.08	249
3399.6	253
3402.12	273
3404.63	285
3407.15	273
3409.66	267
3412.179	269
3414.69	281
3417.21	264
3419.72	262
3422.23	283
3424.74	262
3427.25	275
3429.76	267
3432.27	264
3434.77	263
3437.28	280
3439.79	268
3442.29	266
3444.79	267
3447.3	266
3449.8	268
3452.3	262
3454.8	266
3457.3	266
3459.8	273
3462.3	246
3464.79	271
3467.29	266
3469.79	258
3472.28	268
3474.77	228
3477.27	248
3479.76	251
3482.25	268
3484.741	259
3487.23	240
3489.72	238
3492.21	220
3494.69	264
3497.18	234
3499.666	268
3502.15	261
3504.63	262
3507.12	257
3509.6	258
3512.08	239
3514.56	263
3517.04	234
3519.521	266
3522	236
3524.48	229
3526.95	243
3529.43	247
3531.9	259
3534.38	240
3536.85	239
3539.32	231
3541.79	256
3544.26	244
3546.73	242
3549.2	236
3551.67	254
3554.14	238
3556.61	240
3559.07	226
3561.54	216
3564	246
3566.46	254
3568.93	275
3571.39	243
3573.85	249
3576.31	238
3578.77	240
3581.23	241
3583.68	247
3586.14	251
3588.6	254
3591.052	246
3593.51	237
3595.96	245
3598.41	240
3600.865	248
3603.32	223
3605.77	239
3608.22	252
3610.665	235
3613.11	239
3615.56	266
3618.01	213
3620.45	247
3622.896	224
3625.34	237
3627.78	249
3630.22	243
3632.67	252
3635.11	226
3637.55	221
3639.99	223
3642.42	231
3644.86	231
3647.3	231
3649.73	228
3652.17	225
3654.6	218
3657.04	235
3659.47	231
3661.9	214