File: data/SEM_Raman_Data/KZPd_171010-1/KZPd_171010-1_Raman1.txt
672.793	302
676.3017	288
679.809	313
683.316	282
686.818	283
690.322	283
693.824	276
697.325	292
700.825	244
704.321	266
707.8175	243
711.313	245
714.807	245
718.3	233
721.789	238
725.279	248
728.768	229
732.255	218
735.7392	202
739.224	219
742.707	233
746.187	233
749.668	190
753.147	220
756.623	250
760.1	214
763.575	238
767.047	232
770.519	201
773.9906	214
777.4585	237
780.927	231
784.394	230
787.858	237
791.323	205
794.784	220
798.246	210
801.705	213
805.164	225
808.6217	226
812.076	235
815.532	225
818.984	250
822.436	249
825.885	234
829.335	239
832.782	206
836.229	216
839.673	232
843.118	221
846.559	192
849.999	240
853.44	212
856.878	217
860.316	217
863.75	196
867.186	196
870.618	208
874.049	197
877.48	221
880.909	195
884.335	220
887.763	214
891.187	211
894.612	226
898.034	203
901.454	220
904.873	218
908.293	211
911.709	196
915.124	217
918.54	202
921.953	227
925.364	213
928.774	235
932.184	267
935.592	333
938.998	366
942.402	441
945.8078	569
949.21	596
952.611	588
956.01	570
959.409	563
962.805	585
966.203	555
969.597	559
972.99	568
976.3822	578
979.773	576
983.162	527
986.55	519
989.936	562
993.324	502
996.708	419
1000.09	386
1003.47	306
1006.852	301
1010.23	267
1013.61	244
1016.98	228
1020.36	220
1023.73	221
1027.11	196
1030.48	188
1033.85	170
1037.22	155
1040.58	160
1043.95	163
1047.31	153
1050.68	167
1054.04	128
1057.4	142
1060.76	148
1064.12	159
1067.47	144
1070.83	142
1074.18	130
1077.54	147
1080.89	124
1084.24	145
1087.59	145
1090.937	140
1094.28	125
1097.63	131
1100.97	149
1104.32	147
1107.66	157
1111	145
1114.34	143
1117.68	117
1121.01	141
1124.35	144
1127.68	138
1131.014	144
1134.344	145
1137.67	129
1141.004	135
1144.33	112
1147.66	138
1150.98	131
1154.31	121
1157.63	143
1160.95	133
1164.27	141
1167.59	121
1170.91	135
1174.22	122
1177.54	148
1180.85	104
1184.16	138
1187.47	147
1190.78	124
1194.09	122
1197.4	123
1200.71	136
1204.01	118
1207.31	144
1210.615	116
1213.92	123
1217.22	108
1220.52	115
1223.81	135
1227.11	122
1230.4	111
1233.7	107
1236.99	115
1240.28	135
1243.57	131
1246.86	124
1250.15	110
1253.43	116
1256.71	113
1259.999	130
1263.28	124
1266.56	121
1269.84	105
1273.12	119
1276.4	128
1279.67	114
1282.95	113
1286.22	113
1289.49	111
1292.76	119
1296.03	112
1299.304	132
1302.57	109
1305.84	114
1309.1	120
1312.37	92
1315.63	128
1318.89	113
1322.15	129
1325.41	123
1328.67	117
1331.92	142
1335.18	169
1338.43	178
1341.68	213
1344.93	246
1348.18	251
1351.43	198
1354.68	207
1357.93	189
1361.17	146
1364.42	156
1367.66	131
1370.9	133
1374.14	124
1377.38	135
1380.616	119
1383.85	129
1387.09	106
1390.322	100
1393.55	119
1396.79	90
1400.02	111
1403.25	115
1406.47	95
1409.7	105
1412.93	112
1416.15	106
1419.38	101
1422.6	124
1425.82	116
1429.04	107
1432.25	83
1435.47	102
1438.69	116
1441.9	109
1445.12	118
1448.33	109
1451.54	122
1454.75	102
1457.96	104
1461.17	85
1464.37	103
1467.58	117
1470.78	103
1473.98	116
1477.19	111
1480.39	101
1483.58	100
1486.78	98
1489.98	116
1493.17	108
1496.37	103
1499.563	106
1502.75	103
1505.94	110
1509.14	125
1512.32	100
1515.51	105
1518.7	108
1521.88	119
1525.06	108
1528.25	116
1531.43	105
1534.61	117
1537.79	107
1540.96	103
1544.14	117
1547.32	100
1550.489	109
1553.66	124
1556.83	103
1560	124
1563.17	117
1566.34	143
1569.51	164
1572.675	202
1575.84	199
1579	262
1582.16	357
1585.32	445
1588.49	460
1591.64	408
1594.8	346
1597.96	266
1601.11	229
1604.27	169
1607.42	156
1610.57	130
1613.72	131
1616.871	114
1620.02	125
1623.17	131
1626.31	114
1629.46	129
1632.6	103
1635.74	101
1638.88	78
1642.02	87
1645.16	97
1648.3	98
1651.44	81
1654.57	91
1657.7	87
1660.84	71
1663.97	83
1667.1	83
1670.23	94
1673.36	81
1676.48	90
1679.61	99
1682.74	101
1685.86	91
1688.98	94
1692.1	97
1695.22	83
1698.34	73
1701.46	94
1704.58	79
1707.69	82
1710.81	86
1713.92	83
1717.03	74
1720.14	85
1723.25	84
1726.36	74
1729.47	87
1732.58	89
1735.68	86
1738.78	87
1741.89	91
1744.99	74
1748.09	68
1751.19	82
1754.29	75
1757.39	86
1760.48	76
1763.58	94
1766.67	84
1769.76	73
1772.85	80
1775.94	101
1779.03	101
1782.12	84
1785.21	86
1788.29	93
1791.379	72
1794.46	90
1797.54	77
1800.63	84
1803.7	95
1806.78	78
1809.86	92
1812.94	75
1816.01	75
1819.09	93
1822.16	80
1825.23	87
1828.31	75
1831.38	75
1834.44	79
1837.51	79
1840.58	85
1843.64	88
1846.71	92
1849.77	69
1852.83	77
1855.89	72
1858.95	81
1862.01	87
1865.07	79
1868.125	64
1871.18	66
1874.23	74
1877.29	81
1880.34	91
1883.39	76
1886.44	78
1889.49	79
1892.54	84
1895.58	82
1898.63	88
1901.67	75
1904.72	85
1907.76	61
1910.8	73
1913.84	72
1916.88	66
1919.91	72
1922.95	73
1925.98	72
1929.02	66
1932.052	71
1935.08	72
1938.11	80
1941.14	78
1944.17	84
1947.2	80
1950.23	76
1953.25	83
1956.28	71
1959.3	76
1962.32	75
1965.34	83
1968.36	82
1971.38	89
1974.4	75
1977.41	73
1980.43	62
1983.44	80
1986.46	76
1989.469	85
1992.48	80
1995.49	84
1998.498	69
2001.51	79
2004.512	92
2007.52	74
2010.52	67
2013.52	91
2016.527	67
2019.53	76
2022.528	69
2025.527	72
2028.52	66
2031.52	67
2034.52	83
2037.51	69
2040.51	72
2043.5	66
2046.49	65
2049.478	89
2052.47	75
2055.46	79
2058.44	62
2061.43	64
2064.41	68
2067.4	66
2070.38	69
2073.36	74
2076.34	71
2079.32	70
2082.3	70
2085.28	77
2088.25	66
2091.23	68
2094.2	77
2097.17	64
2100.146	85
2103.12	69
2106.09	75
2109.05	76
2112.02	70
2114.99	70
2117.95	64
2120.92	84
2123.88	63
2126.844	77
2129.804	70
2132.76	73
2135.72	67
2138.68	64
2141.64	57
2144.59	64
2147.55	78
2150.5	69
2153.46	66
2156.41	70
2159.36	73
2162.31	68
2165.25	73
2168.2	64
2171.15	63
2174.09	78
2177.04	72
2179.98	63
2182.92	64
2185.86	52
2188.8	68
2191.74	70
2194.68	60
2197.61	68
2200.551	65
2203.48	68
2206.418	68
2209.35	56
2212.28	65
2215.21	71
2218.14	65
2221.07	58
2224	60
2226.92	68
2229.85	60
2232.77	58
2235.69	78
2238.62	65
2241.54	69
2244.46	75
2247.38	59
2250.29	72
2253.21	66
2256.13	60
2259.04	83
2261.95	76
2264.87	73
2267.78	82
2270.69	54
2273.6	73
2276.51	69
2279.41	61
2282.32	69
2285.22	62
2288.13	67
2291.031	74
2293.93	58
2296.834	70
2299.73	75
2302.63	63
2305.53	64
2308.43	68
2311.32	51
2314.22	61
2317.11	55
2320.01	72
2322.9	66
2325.79	57
2328.676	69
2331.56	86
2334.45	62
2337.34	67
2340.23	65
2343.11	65
2345.99	68
2348.87	64
2351.76	55
2354.64	56
2357.52	69
2360.39	64
2363.27	61
2366.15	74
2369.02	72
2371.9	65
2374.77	79
2377.64	74
2380.51	71
2383.38	61
2386.25	72
2389.12	67
2391.99	76
2394.853	69
2397.72	72
2400.58	56
2403.45	78
2406.31	72
2409.17	67
2412.03	72
2414.89	71
2417.74	73
2420.6	71
2423.46	66
2426.31	76
2429.16	62
2432.02	78
2434.87	75
2437.72	86
2440.57	79
2443.42	85
2446.27	68
2449.11	83
2451.96	82
2454.8	110
2457.65	111
2460.49	114
2463.33	113
2466.17	97
2469.01	92
2471.85	99
2474.69	102
2477.53	97
2480.36	87
2483.19	93
2486.03	82
2488.86	80
2491.69	80
2494.52	76
2497.35	74
2500.18	77
2503.01	75
2505.84	80
2508.66	70
2511.49	72
2514.31	68
2517.13	76
2519.95	76
2522.78	69
2525.59	62
2528.41	73
2531.23	74
2534.05	75
2536.86	76
2539.68	71
2542.491	74
2545.3	79
2548.12	62
2550.93	60
2553.74	66
2556.54	64
2559.35	70
2562.16	70
2564.96	68
2567.77	66
2570.57	78
2573.375	65
2576.177	70
2578.978	68
2581.78	63
2584.58	73
2587.375	76
2590.17	70
2592.97	81
2595.762	83
2598.56	82
2601.35	77
2604.14	85
2606.93	87
2609.72	76
2612.51	81
2615.3	87
2618.09	81
2620.87	97
2623.658	101
2626.44	117
2629.22	107
2632.01	100
2634.79	124
2637.57	140
2640.35	144
2643.13	152
2645.9	177
2648.68	200
2651.45	209
2654.23	264
2657	272
2659.77	392
2662.55	488
2665.32	556
2668.09	662
2670.85	775
2673.62	927
2676.39	1013
2679.15	1124
2681.92	1107
2684.68	1132
2687.45	1052
2690.21	959
2692.968	900
2695.73	792
2698.49	711
2701.24	600
2704.001	533
2706.76	458
2709.51	387
2712.27	345
2715.02	325
2717.772	290
2720.52	264
2723.27	219
2726.02	199
2728.77	180
2731.52	165
2734.26	143
2737.01	140
2739.75	133
2742.5	130
2745.24	111
2747.98	102
2750.72	96
2753.46	81
2756.2	94
2758.939	75
2761.68	81
2764.41	81
2767.15	70
2769.88	73
2772.613	75
2775.345	79
2778.08	76
2780.81	77
2783.54	75
2786.26	75
2788.991	72
2791.72	70
2794.44	69
2797.17	66
2799.89	72
2802.61	68
2805.334	77
2808.05	72
2810.77	64
2813.49	76
2816.21	60
2818.93	65
2821.65	57
2824.36	72
2827.07	69
2829.79	58
2832.5	74
2835.21	61
2837.92	60
2840.63	70
2843.34	65
2846.05	57
2848.75	57
2851.46	62
2854.16	58
2856.87	62
2859.57	59
2862.272	62
2864.97	62
2867.67	63
2870.37	61
2873.07	57
2875.77	68
2878.46	61
2881.16	51
2883.85	63
2886.55	66
2889.24	66
2891.93	62
2894.62	61
2897.311	55
2900	65
2902.688	58
2905.37	61
2908.061	71
2910.75	46
2913.43	58
2916.11	58
2918.8	64
2921.48	61
2924.16	66
2926.84	65
2929.52	64
2932.19	72
2934.87	58
2937.55	60
2940.22	58
2942.89	69
2945.57	58
2948.24	58
2950.91	63
2953.58	68
2956.25	80
2958.92	63
2961.59	61
2964.25	65
2966.92	61
2969.59	59
2972.25	66
2974.91	61
2977.57	52
2980.24	63
2982.9	45
2985.55	60
2988.21	55
2990.87	59
2993.53	52
2996.18	54
2998.84	60
3001.49	58
3004.14	53
3006.8	54
3009.45	62
3012.1	61
3014.75	48
3017.396	54
3020.04	51
3022.69	46
3025.34	52
3027.98	41
3030.63	64
3033.27	50
3035.91	44
3038.55	53
3041.19	49
3043.83	58
3046.47	50
3049.11	51
3051.74	60
3054.38	40
3057.01	59
3059.65	57
3062.281	43
3064.91	51
3067.55	52
3070.17	54
3072.8	48
3075.43	59
3078.06	49
3080.69	43
3083.31	48
3085.94	52
3088.563	44
3091.19	49
3093.81	65
3096.43	50
3099.05	48
3101.67	38
3104.29	49
3106.91	55
3109.52	62
3112.14	48
3114.75	54
3117.37	47
3119.98	43
3122.59	45
3125.21	55
3127.82	48
3130.427	37
3133.04	54
3135.64	53
3138.251	46
3140.86	45
3143.46	52
3146.07	56
3148.67	53
3151.27	52
3153.874	47
3156.48	45
3159.08	48
3161.67	46
3164.27	51
3166.87	58
3169.47	52
3172.06	52
3174.66	49
3177.251	59
3179.85	48
3182.437	45
3185.03	51
3187.62	45
3190.21	46
3192.8	51
3195.38	43
3197.97	48
3200.56	55
3203.14	45
3205.73	54
3208.31	62
3210.89	44
3213.47	56
3216.054	47
3218.63	57
3221.21	53
3223.791	54
3226.37	58
3228.95	51
3231.52	58
3234.1	68
3236.67	80
3239.241	70
3241.81	97
3244.38	89
3246.96	116
3249.52	135
3252.09	137
3254.66	121
3257.23	101
3259.79	95
3262.36	79
3264.92	69
3267.49	67
3270.05	55
3272.61	55
3275.17	56
3277.73	39
3280.29	51
3282.85	46
3285.41	45
3287.96	44
3290.52	47
3293.07	49
3295.63	46
3298.18	42
3300.73	52
3303.28	41
3305.83	44
3308.38	50
3310.93	39
3313.479	44
3316.03	50
3318.57	56
3321.12	48
3323.66	54
3326.21	39
3328.75	60
3331.29	57
3333.83	47
3336.37	50
3338.91	43
3341.448	43
3343.99	44
3346.52	46
3349.06	45
3351.593	40
3354.13	55
3356.66	55
3359.19	43
3361.72	48
3364.25	32
3366.79	46
3369.31	46
3371.84	58
3374.37	51
3376.9	47
3379.42	52
3381.95	39
3384.47	40
3386.99	38
3389.52	43
3392.04	42
3394.56	47
3397.08	35
3399.6	47
3402.12	49
3404.63	47
3407.15	47
3409.66	53
3412.179	48
3414.69	45
3417.21	35
3419.72	48
3422.23	50
3424.74	47
3427.25	43
3429.76	49
3432.27	40
3434.77	34
3437.28	37
3439.79	45
3442.29	44
3444.79	51
3447.3	36
3449.8	48
3452.3	40
3454.8	42
3457.3	52
3459.8	50
3462.3	41
3464.79	44
3467.29	49
3469.79	36
3472.28	45
3474.77	51
3477.27	48
3479.76	51
3482.25	35
3484.741	35
3487.23	47
3489.72	47
3492.21	39
3494.69	57
3497.18	40
3499.666	43
3502.15	37
3504.63	44
3507.12	46
3509.6	44
3512.08	39
3514.56	50
3517.04	47
3519.521	47
3522	53
3524.48	52
3526.95	48
3529.43	36
3531.9	50
3534.38	45
3536.85	43
3539.32	58
3541.79	37
3544.26	44
3546.73	38
3549.2	44
3551.67	47
3554.14	41
3556.61	39
3559.07	47
3561.54	44
3564	47
3566.46	48
3568.93	51
3571.39	39
3573.85	46
3576.31	45
3578.77	33
3581.23	34
3583.68	38
3586.14	44
3588.6	50
3591.052	53
3593.51	42
3595.96	40
3598.41	42
3600.865	51
3603.32	39
3605.77	47
3608.22	59
3610.665	34
3613.11	30
3615.56	30
3618.01	38
3620.45	43
3622.896	33
3625.34	49
3627.78	41
3630.22	50
3632.67	50
3635.11	37
3637.55	51
3639.99	35
3642.42	44
3644.86	43
3647.3	33
3649.73	40
3652.17	42
3654.6	41
3657.04	39
3659.47	36
3661.9	33