File: data/SEM_Raman_Data/KZPd_180530-1/sample.txt
672.793	2851
676.3017	2769
679.809	2728
683.316	2691
686.818	2656
690.322	2578
693.824	2611
697.325	2454
700.825	2366
704.321	2424
707.8175	2412
711.313	2399
714.807	2283
718.3	2236
721.789	2269
725.279	2199
728.768	2263
732.255	2302
735.7392	2216
739.224	2232
742.707	2151
746.187	2173
749.668	2234
753.147	2113
756.623	2187
760.1	2173
763.575	2223
767.047	2159
770.519	2196
773.9906	2193
777.4585	2272
780.927	2253
784.394	2212
787.858	2220
791.323	2188
794.784	2199
798.246	2218
801.705	2211
805.164	2285
808.6217	2319
812.076	2255
815.532	2343
818.984	2317
822.436	2281
825.885	2297
829.335	2183
832.782	2233
836.229	2271
839.673	2206
843.118	2148
846.559	2124
849.999	2083
853.44	2139
856.878	2094
860.316	2131
863.75	2100
867.186	2103
870.618	2124
874.049	2163
877.48	2131
880.909	2201
884.335	2074
887.763	2161
891.187	2172
894.612	2220
898.034	2188
901.454	2172
904.873	2179
908.293	2197
911.709	2226
915.124	2225
918.54	2398
921.953	2419
925.364	2439
928.774	2743
932.184	3288
935.592	3885
938.998	4679
942.402	5259
945.8078	5284
949.21	5227
952.611	5125
956.01	5230
959.409	5220
962.805	5196
966.203	5237
969.597	5285
972.99	5146
976.3822	5252
979.773	5435
983.162	5098
986.55	4923
989.936	4447
993.324	3812
996.708	3265
1000.09	2993
1003.47	2748
1006.852	2693
1010.23	2459
1013.61	2462
1016.98	2391
1020.36	2258
1023.73	2241
1027.11	2169
1030.48	2040
1033.85	1971
1037.22	1889
1040.58	1920
1043.95	1859
1047.31	1810
1050.68	1858
1054.04	1844
1057.4	1777
1060.76	1794
1064.12	1812
1067.47	1861
1070.83	1835
1074.18	1808
1077.54	1852
1080.89	1875
1084.24	1895
1087.59	1904
1090.937	1917
1094.28	1876
1097.63	1948
1100.97	1947
1104.32	1988
1107.66	2012
1111	1973
1114.34	2060
1117.68	2036
1121.01	2090
1124.35	2070
1127.68	1982
1131.014	2065
1134.344	2031
1137.67	2068
1141.004	2136
1144.33	2041
1147.66	2100
1150.98	2107
1154.31	2160
1157.63	2152
1160.95	2216
1164.27	2218
1167.59	2178
1170.91	2192
1174.22	2215
1177.54	2165
1180.85	2266
1184.16	2297
1187.47	2239
1190.78	2216
1194.09	2280
1197.4	2357
1200.71	2329
1204.01	2385
1207.31	2325
1210.615	2417
1213.92	2351
1217.22	2355
1220.52	2375
1223.81	2427
1227.11	2414
1230.4	2573
1233.7	2588
1236.99	2558
1240.28	2558
1243.57	2586
1246.86	2659
1250.15	2663
1253.43	2797
1256.71	2817
1259.999	2885
1263.28	2928
1266.56	2998
1269.84	3045
1273.12	3114
1276.4	3200
1279.67	3210
1282.95	3374
1286.22	3418
1289.49	3457
1292.76	3554
1296.03	3689
1299.304	3857
1302.57	3867
1305.84	3987
1309.1	4163
1312.37	4328
1315.63	4631
1318.89	4804
1322.15	5062
1325.41	5435
1328.67	5966
1331.92	6414
1335.18	7071
1338.43	7703
1341.68	8256
1344.93	8760
1348.18	8704
1351.43	8705
1354.68	8415
1357.93	7911
1361.17	7446
1364.42	6887
1367.66	6481
1370.9	5992
1374.14	5648
1377.38	5340
1380.616	5066
1383.85	4860
1387.09	4710
1390.322	4499
1393.55	4190
1396.79	4224
1400.02	4123
1403.25	3976
1406.47	3833
1409.7	3744
1412.93	3772
1416.15	3614
1419.38	3541
1422.6	3470
1425.82	3511
1429.04	3399
1432.25	3303
1435.47	3325
1438.69	3239
1441.9	3262
1445.12	3227
1448.33	3172
1451.54	3210
1454.75	3242
1457.96	3169
1461.17	3194
1464.37	3209
1467.58	3242
1470.78	3153
1473.98	3160
1477.19	3127
1480.39	3143
1483.58	3120
1486.78	3189
1489.98	3223
1493.17	3176
1496.37	3252
1499.563	3306
1502.75	3320
1505.94	3219
1509.14	3299
1512.32	3320
1515.51	3341
1518.7	3469
1521.88	3409
1525.06	3449
1528.25	3597
1531.43	3615
1534.61	3661
1537.79	3713
1540.96	3884
1544.14	4013
1547.32	4093
1550.489	4394
1553.66	4602
1556.83	5037
1560	5403
1563.17	6085
1566.34	6997
1569.51	8261
1572.675	9897
1575.84	12206
1579	14430
1582.16	15773
1585.32	16391
1588.49	15656
1591.64	13690
1594.8	11589
1597.96	9640
1601.11	8317
1604.27	7408
1607.42	6744
1610.57	6256
1613.72	6083
1616.871	6051
1620.02	6184
1623.17	6210
1626.31	5814
1629.46	5413
1632.6	4791
1635.74	4271
1638.88	3783
1642.02	3483
1645.16	3185
1648.3	2999
1651.44	2840
1654.57	2603
1657.7	2437
1660.84	2326
1663.97	2189
1667.1	2169
1670.23	2009
1673.36	1922
1676.48	1845
1679.61	1740
1682.74	1729
1685.86	1586
1688.98	1562
1692.1	1535
1695.22	1528
1698.34	1462
1701.46	1318
1704.58	1370
1707.69	1383
1710.81	1304
1713.92	1291
1717.03	1175
1720.14	1225
1723.25	1241
1726.36	1263
1729.47	1222
1732.58	1229
1735.68	1212
1738.78	1191
1741.89	1217
1744.99	1134
1748.09	1201
1751.19	1176
1754.29	1186
1757.39	1179
1760.48	1197
1763.58	1163
1766.67	1137
1769.76	1155
1772.85	1140
1775.94	1163
1779.03	1134
1782.12	1158
1785.21	1127
1788.29	1088
1791.379	1121
1794.46	1150
1797.54	1109
1800.63	1124
1803.7	1164
1806.78	1081
1809.86	1111
1812.94	1073
1816.01	1128
1819.09	1108
1822.16	1076
1825.23	1134
1828.31	1062
1831.38	1055
1834.44	1088
1837.51	1101
1840.58	1094
1843.64	1077
1846.71	1126
1849.77	1080
1852.83	1085
1855.89	1097
1858.95	1086
1862.01	1080
1865.07	1064
1868.125	1104
1871.18	1031
1874.23	1022
1877.29	1063
1880.34	1107
1883.39	1076
1886.44	1056
1889.49	1094
1892.54	1067
1895.58	1105
1898.63	1113
1901.67	1102
1904.72	1050
1907.76	1076
1910.8	1006
1913.84	1041
1916.88	1031
1919.91	1034
1922.95	1060
1925.98	1085
1929.02	1061
1932.052	1044
1935.08	1048
1938.11	1033
1941.14	1035
1944.17	1073
1947.2	1064
1950.23	1029
1953.25	1075
1956.28	1028
1959.3	1042
1962.32	1041
1965.34	1076
1968.36	1079
1971.38	1049
1974.4	1047
1977.41	1055
1980.43	1086
1983.44	1023
1986.46	1069
1989.469	1011
1992.48	1050
1995.49	1074
1998.498	1073
2001.51	1076
2004.512	1047
2007.52	1040
2010.52	1100
2013.52	1078
2016.527	1001
2019.53	1048
2022.528	1019
2025.527	1014
2028.52	1072
2031.52	1025
2034.52	1054
2037.51	1051
2040.51	1076
2043.5	1015
2046.49	1041
2049.478	994
2052.47	993
2055.46	1003
2058.44	978
2061.43	992
2064.41	1028
2067.4	968
2070.38	1028
2073.36	1020
2076.34	986
2079.32	1009
2082.3	1038
2085.28	964
2088.25	1027
2091.23	1027
2094.2	1037
2097.17	982
2100.146	1020
2103.12	1000
2106.09	1019
2109.05	1028
2112.02	987
2114.99	1020
2117.95	982
2120.92	997
2123.88	944
2126.844	1027
2129.804	951
2132.76	993
2135.72	1027
2138.68	949
2141.64	1017
2144.59	997
2147.55	990
2150.5	967
2153.46	989
2156.41	1003
2159.36	1006
2162.31	922
2165.25	984
2168.2	914
2171.15	932
2174.09	955
2177.04	991
2179.98	968
2182.92	936
2185.86	951
2188.8	971
2191.74	993
2194.68	950
2197.61	940
2200.551	944
2203.48	973
2206.418	972
2209.35	955
2212.28	991
2215.21	950
2218.14	968
2221.07	1008
2224	996
2226.92	998
2229.85	986
2232.77	992
2235.69	977
2238.62	1055
2241.54	1004
2244.46	969
2247.38	979
2250.29	977
2253.21	982
2256.13	980
2259.04	1002
2261.95	1026
2264.87	995
2267.78	993
2270.69	1029
2273.6	1005
2276.51	1001
2279.41	988
2282.32	969
2285.22	963
2288.13	1018
2291.031	1014
2293.93	976
2296.834	962
2299.73	1029
2302.63	979
2305.53	1013
2308.43	1053
2311.32	1035
2314.22	991
2317.11	961
2320.01	931
2322.9	1003
2325.79	996
2328.676	940
2331.56	1029
2334.45	1029
2337.34	975
2340.23	984
2343.11	1024
2345.99	1040
2348.87	933
2351.76	964
2354.64	996
2357.52	1027
2360.39	1005
2363.27	977
2366.15	1069
2369.02	1051
2371.9	1081
2374.77	1025
2377.64	1108
2380.51	1040
2383.38	1094
2386.25	1043
2389.12	1108
2391.99	1084
2394.853	1053
2397.72	1114
2400.58	1111
2403.45	1148
2406.31	1117
2409.17	1153
2412.03	1114
2414.89	1136
2417.74	1134
2420.6	1201
2423.46	1214
2426.31	1207
2429.16	1213
2432.02	1250
2434.87	1222
2437.72	1319
2440.57	1302
2443.42	1355
2446.27	1410
2449.11	1423
2451.96	1487
2454.8	1460
2457.65	1435
2460.49	1438
2463.33	1473
2466.17	1418
2469.01	1388
2471.85	1364
2474.69	1383
2477.53	1339
2480.36	1370
2483.19	1336
2486.03	1355
2488.86	1323
2491.69	1318
2494.52	1296
2497.35	1310
2500.18	1310
2503.01	1258
2505.84	1239
2508.66	1275
2511.49	1280
2514.31	1281
2517.13	1267
2519.95	1244
2522.78	1317
2525.59	1257
2528.41	1287
2531.23	1293
2534.05	1337
2536.86	1319
2539.68	1283
2542.491	1309
2545.3	1330
2548.12	1308
2550.93	1358
2553.74	1332
2556.54	1354
2559.35	1350
2562.16	1328
2564.96	1423
2567.77	1444
2570.57	1414
2573.375	1429
2576.177	1398
2578.978	1431
2581.78	1406
2584.58	1485
2587.375	1448
2590.17	1504
2592.97	1498
2595.762	1580
2598.56	1609
2601.35	1588
2604.14	1573
2606.93	1614
2609.72	1707
2612.51	1704
2615.3	1726
2618.09	1773
2620.87	1786
2623.658	1875
2626.44	1903
2629.22	2004
2632.01	2077
2634.79	2154
2637.57	2223
2640.35	2324
2643.13	2503
2645.9	2699
2648.68	2722
2651.45	2947
2654.23	3130
2657	3288
2659.77	3583
2662.55	3930
2665.32	4256
2668.09	4593
2670.85	4865
2673.62	5417
2676.39	5893
2679.15	6244
2681.92	6815
2684.68	7270
2687.45	7875
2690.21	8184
2692.968	8472
2695.73	8653
2698.49	8784
2701.24	8507
2704.001	8440
2706.76	8117
2709.51	7694
2712.27	7111
2715.02	6756
2717.772	6189
2720.52	5711
2723.27	5261
2726.02	4699
2728.77	4415
2731.52	4153
2734.26	3839
2737.01	3553
2739.75	3353
2742.5	3033
2745.24	2844
2747.98	2731
2750.72	2547
2753.46	2402
2756.2	2338
2758.939	2118
2761.68	2062
2764.41	1950
2767.15	1920
2769.88	1851
2772.613	1791
2775.345	1742
2778.08	1774
2780.81	1650
2783.54	1660
2786.26	1634
2788.991	1577
2791.72	1478
2794.44	1534
2797.17	1479
2799.89	1489
2802.61	1441
2805.334	1453
2808.05	1433
2810.77	1517
2813.49	1482
2816.21	1435
2818.93	1416
2821.65	1429
2824.36	1445
2827.07	1399
2829.79	1409
2832.5	1394
2835.21	1423
2837.92	1348
2840.63	1373
2843.34	1396
2846.05	1398
2848.75	1401
2851.46	1389
2854.16	1409
2856.87	1361
2859.57	1368
2862.272	1359
2864.97	1378
2867.67	1309
2870.37	1379
2873.07	1394
2875.77	1384
2878.46	1387
2881.16	1383
2883.85	1382
2886.55	1400
2889.24	1384
2891.93	1409
2894.62	1487
2897.311	1381
2900	1450
2902.688	1404
2905.37	1441
2908.061	1469
2910.75	1451
2913.43	1418
2916.11	1457
2918.8	1502
2921.48	1479
2924.16	1516
2926.84	1520
2929.52	1524
2932.19	1507
2934.87	1504
2937.55	1516
2940.22	1544
2942.89	1558
2945.57	1487
2948.24	1504
2950.91	1483
2953.58	1421
2956.25	1481
2958.92	1491
2961.59	1424
2964.25	1390
2966.92	1433
2969.59	1365
2972.25	1345
2974.91	1369
2977.57	1319
2980.24	1345
2982.9	1267
2985.55	1264
2988.21	1254
2990.87	1204
2993.53	1179
2996.18	1185
2998.84	1156
3001.49	1157
3004.14	1160
3006.8	1100
3009.45	1149
3012.1	1097
3014.75	1105
3017.396	1144
3020.04	1087
3022.69	1143
3025.34	1056
3027.98	1122
3030.63	1091
3033.27	1010
3035.91	1054
3038.55	1087
3041.19	1068
3043.83	1015
3046.47	1051
3049.11	1074
3051.74	997
3054.38	1070
3057.01	992
3059.65	1077
3062.281	1066
3064.91	1025
3067.55	1028
3070.17	1013
3072.8	1011
3075.43	1004
3078.06	1014
3080.69	1003
3083.31	1013
3085.94	1001
3088.563	981
3091.19	940
3093.81	970
3096.43	953
3099.05	932
3101.67	958
3104.29	923
3106.91	981
3109.52	982
3112.14	962
3114.75	967
3117.37	913
3119.98	917
3122.59	963
3125.21	890
3127.82	926
3130.427	860
3133.04	907
3135.64	954
3138.251	920
3140.86	937
3143.46	904
3146.07	899
3148.67	951
3151.27	934
3153.874	959
3156.48	886
3159.08	921
3161.67	931
3164.27	901
3166.87	917
3169.47	911
3172.06	942
3174.66	925
3177.251	950
3179.85	900
3182.437	933
3185.03	945
3187.62	973
3190.21	913
3192.8	929
3195.38	932
3197.97	931
3200.56	906
3203.14	968
3205.73	936
3208.31	922
3210.89	981
3213.47	956
3216.054	969
3218.63	1011
3221.21	979
3223.791	1059
3226.37	1029
3228.95	1044
3231.52	1130
3234.1	1144
3236.67	1199
3239.241	1262
3241.81	1287
3244.38	1390
3246.96	1343
3249.52	1307
3252.09	1304
3254.66	1186
3257.23	1135
3259.79	1078
3262.36	975
3264.92	937
3267.49	882
3270.05	928
3272.61	882
3275.17	883
3277.73	882
3280.29	827
3282.85	759
3285.41	792
3287.96	752
3290.52	757
3293.07	814
3295.63	762
3298.18	760
3300.73	733
3303.28	770
3305.83	752
3308.38	733
3310.93	744
3313.479	756
3316.03	745
3318.57	679
3321.12	723
3323.66	674
3326.21	719
3328.75	691
3331.29	727
3333.83	681
3336.37	693
3338.91	685
3341.448	708
3343.99	669
3346.52	654
3349.06	680
3351.593	679
3354.13	686
3356.66	687
3359.19	728
3361.72	706
3364.25	712
3366.79	695
3369.31	706
3371.84	716
3374.37	676
3376.9	666
3379.42	694
3381.95	698
3384.47	656
3386.99	701
3389.52	684
3392.04	684
3394.56	729
3397.08	703
3399.6	695
3402.12	717
3404.63	675
3407.15	694
3409.66	713
3412.179	718
3414.69	704
3417.21	689
3419.72	658
3422.23	707
3424.74	678
3427.25	716
3429.76	695
3432.27	666
3434.77	708
3437.28	710
3439.79	688
3442.29	723
3444.79	677
3447.3	707
3449.8	707
3452.3	687
3454.8	721
3457.3	670
3459.8	725
3462.3	687
3464.79	646
3467.29	699
3469.79	680
3472.28	666
3474.77	645
3477.27	654
3479.76	644
3482.25	633
3484.741	682
3487.23	676
3489.72	644
3492.21	619
3494.69	648
3497.18	645
3499.666	664
3502.15	654
3504.63	697
3507.12	636
3509.6	639
3512.08	648
3514.56	665
3517.04	632
3519.521	648
3522	634
3524.48	611
3526.95	655
3529.43	641
3531.9	659
3534.38	644
3536.85	681
3539.32	688
3541.79	662
3544.26	636
3546.73	628
3549.2	656
3551.67	674
3554.14	662
3556.61	640
3559.07	651
3561.54	671
3564	671
3566.46	631
3568.93	675
3571.39	672
3573.85	663
3576.31	667
3578.77	649
3581.23	624
3583.68	662
3586.14	684
3588.6	638
3591.052	670
3593.51	669
3595.96	687
3598.41	651
3600.865	633
3603.32	662
3605.77	662
3608.22	654
3610.665	639
3613.11	688
3615.56	603
3618.01	662
3620.45	628
3622.896	625
3625.34	644
3627.78	630
3630.22	642
3632.67	580
3635.11	647
3637.55	603
3639.99	619
3642.42	613
3644.86	605
3647.3	592
3649.73	590
3652.17	622
3654.6	631
3657.04	606
3659.47	633
3661.9	608