File: data/SEM_Raman_Data/KZPd_170903-2/20170924_Gr on SiO2_2_spec.txt
672.793	170.416
676.3017	189.773
679.809	136.986
683.316	122.058
686.818	166.988
690.322	88.78656
693.824	140.452
697.325	45.9855
700.825	48.39085
704.321	47.6661
707.8175	89.8212
711.313	15.85426
714.807	-4.23221
718.3	14.5639
721.789	-2.75835
725.279	17.80958
728.768	7.26654
732.255	-7.38548
735.7392	44.85276
739.224	6.989234
742.707	-1.977204
746.187	31.9528
749.668	59.78661
753.147	48.5235
756.623	40.1627
760.1	7.711194
763.575	43.1684
767.047	50.5334
770.519	-30.1868
773.9906	38.0068
777.4585	38.1138
780.927	52.1406
784.394	66.0864
787.858	87.9506
791.323	85.7396
794.784	117.45
798.246	81.0887
801.705	99.6522
805.164	89.1464
808.6217	103.571
812.076	105.925
815.532	127.214
818.984	169.436
822.436	132.596
825.885	165.691
829.335	192.727
832.782	108.702
836.229	133.62
839.673	150.479
843.118	73.28373
846.559	72.0324
849.999	129.728
853.44	106.373
856.878	108.965
860.316	81.51
863.75	61.0046
867.186	54.45343
870.618	63.8547
874.049	180.211
877.48	179.525
880.909	79.7946
884.335	171.023
887.763	96.2114
891.187	160.359
894.612	144.47
898.034	133.541
901.454	201.577
904.873	191.576
908.293	140.542
911.709	162.4734
915.124	167.372
918.54	256.239
921.953	298.075
925.364	309.881
928.774	536.6568
932.184	771.406
935.592	1097.126
938.998	1439.82
942.402	1735.49
945.8078	1675.13
949.21	1681.75
952.611	1690.343
956.01	1610.91
959.409	1672.464
962.805	1624.99
966.203	1635.5
969.597	1646.99
972.99	1600.46
976.3822	1680.9
979.773	1673.34
983.162	1636.75
986.55	1454.15
989.936	1222.53
993.324	922.893
996.708	630.244
1000.09	549.579
1003.47	433.902
1006.852	425.21
1010.23	420.507
1013.61	308.791
1016.98	296.063
1020.36	234.3241
1023.73	156.575
1027.11	170.815
1030.48	93.0458
1033.85	68.2673
1037.22	17.4801
1040.58	30.6845
1043.95	-22.1188
1047.31	26.0704
1050.68	6.25257
1054.04	-12.5718
1057.4	-7.40244
1060.76	-9.23952
1064.12	-30.0814
1067.47	9.07176
1070.83	-15.7798
1074.18	-51.6357
1077.54	-44.4956
1080.89	-64.3591
1084.24	-28.226
1087.59	-11.0965
1090.937	-3.96904
1094.28	-26.844
1097.63	-29.721
1100.97	-9.59979
1104.32	13.5199
1107.66	25.63768
1111	55.7551
1114.34	41.8719
1117.68	13.9882
1121.01	42.1036
1124.35	51.2197
1127.68	-0.663984
1131.014	39.4528
1134.344	34.5696
1137.67	67.688
1141.004	32.8075
1144.33	16.9275
1147.66	48.0498
1150.98	7.17367
1154.31	43.2988
1157.63	109.427
1160.95	53.5564
1164.27	53.6881
1167.59	59.8228
1170.91	23.9602
1174.22	66.0997
1177.54	100.243
1180.85	51.3883
1184.16	78.5376
1187.47	73.6902
1190.78	36.8456
1194.09	75.0051
1197.4	46.1676
1200.71	129.334
1204.01	80.5045
1207.31	100.679
1210.615	117.857
1213.92	98.0397
1217.22	137.226
1220.52	104.417
1223.81	73.6116
1227.11	102.811
1230.4	84.0147
1233.7	122.223
1236.99	79.4356
1240.28	89.6526
1243.57	136.875
1246.86	61.1011
1250.15	129.333
1253.43	88.5683
1256.71	151.8087
1259.999	154.055
1263.28	158.304
1266.56	123.56
1269.84	138.8194
1273.12	161.084
1276.4	146.354
1279.67	211.628
1282.95	160.907
1286.22	172.19
1289.49	171.479
1292.76	169.773
1296.03	176.071
1299.304	182.375
1302.57	206.6825
1305.84	274.995
1309.1	206.312
1312.37	223.635
1315.63	279.962
1318.89	275.293
1322.15	324.629
1325.41	278.9696
1328.67	336.315
1331.92	347.6651
1335.18	474.019
1338.43	489.378
1341.68	558.741
1344.93	615.108
1348.18	665.48
1351.43	674.856
1354.68	726.236
1357.93	682.62
1361.17	661.009
1364.42	583.401
1367.66	517.797
1370.9	536.197
1374.14	494.601
1377.38	477.009
1380.616	460.421
1383.85	424.836
1387.09	439.2543
1390.322	442.676
1393.55	419.102
1396.79	436.531
1400.02	427.9632
1403.25	466.399
1406.47	391.837
1409.7	472.279
1412.93	459.723
1416.15	460.171
1419.38	439.621
1422.6	451.074
1425.82	504.53
1429.04	450.9877
1432.25	489.448
1435.47	456.911
1438.69	531.376
1441.9	501.843
1445.12	532.313
1448.33	496.7847
1451.54	574.258
1454.75	562.733
1457.96	566.21
1461.17	570.689
1464.37	624.17
1467.58	593.6507
1470.78	651.134
1473.98	573.619
1477.19	625.105
1480.39	686.5907
1483.58	663.079
1486.78	722.568
1489.98	659.057
1493.17	672.547
1496.37	682.038
1499.563	770.53
1502.75	788.021
1505.94	769.513
1509.14	733.006
1512.32	748.498
1515.51	720.991
1518.7	725.484
1521.88	757.975
1525.06	746.4679
1528.25	805.959
1531.43	814.451
1534.61	813.942
1537.79	774.432
1540.96	845.921
1544.14	828.41
1547.32	810.898
1550.489	850.384
1553.66	853.87
1556.83	882.354
1560	1054.837
1563.17	1179.32
1566.34	1293.8
1569.51	1624.28
1572.675	1995.754
1575.84	2434.23
1579	3245.7
1582.16	4165.17
1585.32	5464.64
1588.49	6513.11
1591.64	6799.57
1594.8	6822.04
1597.96	6362.5
1601.11	5997.95
1604.27	5306.41
1607.42	4096.86
1610.57	2916.31
1613.72	2010.76
1616.871	1405.2
1620.02	1188.64
1623.17	1002.08
1626.31	807.51
1629.46	725.94
1632.6	604.368
1635.74	488.791
1638.88	400.211
1642.02	368.627
1645.16	352.04
1648.3	246.449
1651.44	283.8533
1654.57	191.254
1657.7	223.65
1660.84	200.043
1663.97	163.432
1667.1	177.815
1670.23	132.1946
1673.36	174.569
1676.48	106.94
1679.61	117.306
1682.74	90.6671
1685.86	62.0232
1688.98	47.3745
1692.1	57.7209
1695.22	56.0622
1698.34	29.3984
1701.46	63.7295
1704.58	35.0553
1707.69	6.37591
1710.81	46.6911
1713.92	6.00088
1717.03	35.3051
1720.14	-1.39615
1723.25	3.89689
1726.36	44.1843
1729.47	18.4659
1732.58	27.7416
1735.68	32.0116
1738.78	-17.72451
1741.89	31.5334
1744.99	39.78524
1748.09	16.031
1751.19	4.27052
1754.29	15.5038
1757.39	-6.26923
1760.48	-11.0493
1763.58	-15.835
1766.67	2.37272
1769.76	-12.4261
1772.85	24.7686
1775.94	12.9566
1779.03	10.1373
1782.12	-8.68802
1785.21	11.4799
1788.29	-2.35904
1791.379	14.7951
1794.46	13.9418
1797.54	33.0821
1800.63	5.21547
1803.7	20.3412
1806.78	10.4604
1809.86	-10.4275
1812.94	21.6775
1816.01	21.7746
1819.09	12.8651
1822.16	-7.0517
1825.23	-12.9764
1828.31	-20.9078
1831.38	-22.8466
1834.44	18.2065
1837.51	-15.7471
1840.58	6.2911
1843.64	-27.6776
1846.71	12.3462
1849.77	24.3619
1852.83	22.3705
1855.89	10.3709
1858.95	-8.63573
1862.01	26.3494
1865.07	2.32738
1868.125	6.29706
1871.18	6.25958
1874.23	8.2138
1877.29	-6.83924
1880.34	22.09936
1883.39	18.0307
1886.44	21.9536
1889.49	32.8693
1892.54	7.77648
1895.58	21.6763
1898.63	-31.4322
1901.67	-6.548686
1904.72	4.32739
1907.76	-13.80493
1910.8	20.0552
1913.84	-5.09298
1916.88	-10.2492
1919.91	9.58709
1922.95	-1.58507
1925.98	15.2348
1929.02	29.0471
1932.052	-9.149065
1935.08	-22.3532
1938.11	-23.56535
1941.14	-4.78503
1944.17	41.9868
1947.2	25.7506
1950.23	3.50646
1953.25	9.254734
1956.28	25.9945
1959.3	45.7264
1962.32	-5.549789
1965.34	0.16607
1968.36	41.8743
1971.38	8.574235
1974.4	-9.73382
1977.41	2.95014
1980.43	26.62615
1983.44	13.2942
1986.46	14.9544
1989.469	21.607
1992.48	-0.74867
1995.49	24.88776
1998.498	11.5163
2001.51	36.137
2004.512	17.7499
2007.52	29.3549
2010.52	11.9521
2013.52	46.5415
2016.527	32.1231
2019.53	5.697011
2022.528	35.2631
2025.527	21.8216
2028.52	15.37228
2031.52	34.9153
2034.52	53.4507
2037.51	16.9785
2040.51	20.4987
2043.5	28.0113
2046.49	-4.48367
2049.478	-6.98643
2052.47	31.5036
2055.46	48.9862
2058.44	14.4613
2061.43	-1.07101
2064.41	30.3893
2067.4	-3.15769
2070.38	38.2877
2073.36	-21.2739
2076.34	-11.8428
2079.32	31.5812
2082.3	18.9979
2085.28	18.4072
2088.25	37.8097
2091.23	1.20508
2094.2	-4.40681
2097.17	4.974535
2100.146	34.3489
2103.12	26.7163
2106.09	27.0767
2109.05	20.4304
2112.02	17.7773
2114.99	68.1172
2117.95	2.45058
2120.92	35.7773
2123.88	55.0972
2126.844	54.4106
2129.804	31.7173
2132.76	37.0177
2135.72	81.3117
2138.68	12.599
2141.64	55.8801
2144.59	32.1547
2147.55	28.4233
2150.5	41.6854
2153.46	1.94144
2156.41	49.1912
2159.36	10.4351
2162.31	55.6727
2165.25	33.9045
2168.2	16.1302
2171.15	5.350194
2174.09	-16.4358
2177.04	50.7725
2179.98	6.97497
2182.92	20.1719
2185.86	2.36301
2188.8	8.54857
2191.74	7.72873
2194.68	25.9033
2197.61	36.0725
2200.551	1.23633
2203.48	16.3948
2206.418	32.54805
2209.35	23.6962
2212.28	5.83906
2215.21	-15.0231
2218.14	-29.8903
2221.07	4.23754
2224	14.3604
2226.92	14.4785
2229.85	17.5918
2232.77	-23.2997
2235.69	40.8042
2238.62	8.90337
2241.54	11.998
2244.46	80.0882
2247.38	32.174
2250.29	26.2553
2253.21	35.33231
2256.13	13.4051
2259.04	30.4736
2261.95	4.53811
2264.87	40.5985
2267.78	20.6548
2270.69	30.7072
2273.6	53.7557
2276.51	38.8004
2279.41	33.84132
2282.32	22.8785
2285.22	7.912138
2288.13	-0.0578423
2291.031	29.96867
2293.93	-20.0083
2296.834	-1.98857
2299.73	-4.9722
2302.63	0.0409208
2305.53	-15.9491
2308.43	-4.94233
2311.32	12.0614
2314.22	19.0622
2317.11	-26.94
2320.01	-4.945
2322.9	13.0472
2325.79	-7.96336
2328.676	-36.9766
2331.56	-4.99239
2334.45	-23.0107
2337.34	17.9685
2340.23	20.9452
2343.11	-35.0803
2345.99	-16.1081
2348.87	-11.1381
2351.76	9.82971
2354.64	-8.2045
2357.52	-23.2407
2360.39	-13.2789
2363.27	15.6811
2366.15	-15.3607
2369.02	9.59568
2371.9	8.55043
2374.77	-30.4964
2377.64	14.4552
2380.51	-4.59463
2383.38	13.3541
2386.25	6.30154
2389.12	3.24768
2391.99	30.1926
2394.853	38.1364
2397.72	14.0792
2400.58	8.02091
2403.45	24.9617
2406.31	-7.09836
2409.17	21.8408
2412.03	15.7792
2414.89	32.7169
2417.74	22.654
2420.6	48.5906
2423.46	56.5267
2426.31	23.4624
2429.16	59.3977
2432.02	42.33279
2434.87	84.2677
2437.72	52.2024
2440.57	54.1371
2443.42	88.0717
2446.27	98.0064
2449.11	117.941
2451.96	120.876
2454.8	142.811
2457.65	152.747
2460.49	172.683
2463.33	135.619
2466.17	145.556
2469.01	159.4937
2471.85	112.432
2474.69	108.371
2477.53	119.31
2480.36	118.251
2483.19	101.192
2486.03	77.1341
2488.86	76.0773
2491.69	88.0216
2494.52	32.9671
2497.35	31.9137
2500.18	73.8616
2503.01	22.8109
2505.84	52.7615
2508.66	63.7136
2511.49	83.6672
2514.31	54.6224
2517.13	58.5792
2519.95	57.5377
2522.78	40.4979
2525.59	80.46
2528.41	49.4239
2531.23	20.3898
2534.05	59.3576
2536.86	62.3275
2539.68	66.2996
2542.491	39.2737
2545.3	59.25013
2548.12	56.2288
2550.93	65.2098
2553.74	65.1932
2556.54	31.17911
2559.35	41.1675
2562.16	50.1584
2564.96	64.152
2567.77	42.1482
2570.57	91.1472
2573.375	82.149
2576.177	77.1536
2578.978	80.161
2581.78	78.1715
2584.58	97.1849
2587.375	89.2014
2590.17	72.2211
2592.97	67.2438
2595.762	74.2698
2598.56	68.299
2601.35	86.3316
2604.14	108.368
2606.93	85.4069
2609.72	149.45
2612.51	127.496
2615.3	123.546
2618.09	116.599
2620.87	101.657
2623.658	161.718
2626.44	165.782
2629.22	232.8506
2632.01	223.923
2634.79	226.999
2637.57	288.079
2640.35	310.163
2643.13	362.252
2645.9	380.3439
2648.68	419.44
2651.45	506.541
2654.23	538.646
2657	655.7547
2659.77	736.868
2662.55	854.986
2665.32	945.108
2668.09	1131.23
2670.85	1295.37
2673.62	1489.5
2676.39	1661.64
2679.15	1888.79
2681.92	2171.93
2684.68	2367.09
2687.45	2606.25
2690.21	2855.41
2692.968	3034.58
2695.73	3017.75
2698.49	3017.93
2701.24	2927.11
2704.001	2729.3
2706.76	2567.49
2709.51	2213.69
2712.27	2063.89
2715.02	1862.1
2717.772	1569.31
2720.52	1430.53
2723.27	1257.75
2726.02	1098.98
2728.77	905.215
2731.52	851.454
2734.26	671.698
2737.01	625.9472
2739.75	516.202
2742.5	498.462
2745.24	441.7272
2747.98	327.998
2750.72	332.274
2753.46	268.556
2756.2	260.843
2758.939	188.136
2761.68	226.434
2764.41	209.738
2767.15	121.047
2769.88	127.3624
2772.613	189.683
2775.345	86.0094
2778.08	157.341
2780.81	63.6792
2783.54	108.023
2786.26	103.372
2788.991	88.7268
2791.72	118.088
2794.44	81.4542
2797.17	89.8266
2799.89	76.2048
2802.61	104.589
2805.334	29.9786
2808.05	39.3744
2810.77	46.7761
2813.49	50.1838
2816.21	97.5973
2818.93	60.01688
2821.65	59.4423
2824.36	70.8735
2827.07	56.3109
2829.79	72.7543
2832.5	29.2037
2835.21	61.6591
2837.92	48.1202
2840.63	41.5876
2843.34	24.0611
2846.05	86.5406
2848.75	61.0259
2851.46	44.5175
2854.16	5.01516
2856.87	44.5186
2859.57	53.0284
2862.272	36.5442
2864.97	55.0658
2867.67	30.5939
2870.37	56.1276
2873.07	25.66782
2875.77	53.214
2878.46	51.766
2881.16	61.3244
2883.85	38.8886
2886.55	62.4592
2889.24	31.0355
2891.93	27.6182
2894.62	53.2066
2897.311	46.8015
2900	18.402
2902.688	73.009
2905.37	58.6217
2908.061	56.2407
2910.75	43.86544
2913.43	33.4966
2916.11	34.13332
2918.8	-1.22386
2921.48	38.4253
2924.16	37.08007
2926.84	40.7412
2929.52	22.4079
2932.19	37.0806
2934.87	46.7592
2937.55	63.4442
2940.22	33.1347
2942.89	51.831
2945.57	17.5337
2948.24	5.24181
2950.91	38.9558
2953.58	38.6757
2956.25	37.4018
2958.92	36.1332
2961.59	42.8705
2964.25	15.6135
2966.92	65.3622
2969.59	40.1172
2972.25	46.8774
2974.91	36.6433
2977.57	52.4149
2980.24	28.1921
2982.9	21.97488
2985.55	24.7633
2988.21	5.557303
2990.87	34.3568
2993.53	24.1619
2996.18	26.9725
2998.84	26.7885
3001.49	20.6099
3004.14	9.43682
3006.8	14.2691
3009.45	54.1067
3012.1	35.9496
3014.75	50.79784
3017.396	14.6513
3020.04	35.51004
3022.69	36.374
3025.34	29.2431
3027.98	20.1172
3030.63	26.99663
3033.27	5.88097
3035.91	15.7699
3038.55	35.6643
3041.19	7.56368
3043.83	6.46796
3046.47	8.377183
3049.11	12.2906
3051.74	35.2094
3054.38	51.1331
3057.01	34.0614
3059.65	-12.0062
3062.281	15.9315
3064.91	19.8738
3067.55	55.8206
3070.17	19.7713
3072.8	0.727215
3075.43	12.6874
3078.06	18.6515
3080.69	33.6205
3083.31	14.5932
3085.94	-3.42927
3088.563	28.5525
3091.19	49.5378
3093.81	13.52773
3096.43	19.5212
3099.05	25.5193
3101.67	1.52072
3104.29	-1.47337
3106.91	-24.4635
3109.52	0.54948
3112.14	6.56622
3114.75	29.5873
3117.37	-15.3885
3119.98	12.6397
3122.59	35.6709
3125.21	35.7063
3127.82	9.74449
3130.427	12.78658
3133.04	43.8315
3135.64	-0.120348
3138.251	8.9315
3140.86	3.98595
3143.46	14.0435
3146.07	4.10472
3148.67	28.16832
3151.27	-5.76522
3153.874	-15.69596
3156.48	20.3767
3159.08	25.4515
3161.67	11.529
3164.27	24.6091
3166.87	15.6923
3169.47	5.77734
3172.06	5.864852
3174.66	6.95465
3177.251	10.0468
3179.85	29.1417
3182.437	-1.76193
3185.03	46.3366
3187.62	41.4371
3190.21	16.5396
3192.8	-4.35613
3195.38	17.75
3197.97	7.8578
3200.56	31.9673
3203.14	12.0785
3205.73	9.1911
3208.31	26.3051
3210.89	11.4206
3213.47	24.5372
3216.054	32.6552
3218.63	29.7743
3221.21	15.8945
3223.791	52.0156
3226.37	20.1377
3228.95	46.2607
3231.52	77.3844
3234.1	95.5089
3236.67	124.634
3239.241	147.759
3241.81	128.885
3244.38	187.011
3246.96	157.138
3249.52	185.265
3252.09	183.392
3254.66	99.5186
3257.23	128.646
3259.79	150.773
3262.36	115.9
3264.92	70.0257
3267.49	51.1519
3270.05	55.2777
3272.61	39.4024
3275.17	24.52704
3277.73	32.6511
3280.29	23.7736
3282.85	-17.1039
3285.41	4.01755
3287.96	18.1373
3290.52	22.2566
3293.07	25.3741
3295.63	16.49085
3298.18	1.6063
3300.73	2.71958
3303.28	28.832
3305.83	17.942
3308.38	8.051033
3310.93	-2.8425
3313.479	18.6199
3316.03	24.0796
3318.57	25.1807
3321.12	26.279
3323.66	27.375
3326.21	28.4692
3328.75	13.5343
3331.29	17.9352
3333.83	-1.9789
3336.37	-13.8958
3338.91	27.1851
3341.448	4.262361
3343.99	-9.66338
3346.52	8.408392
3349.06	21.4762
3351.593	-13.4592
3354.13	5.60246
3356.66	23.66
3359.19	25.7139
3361.72	10.764
3364.25	3.81041
3366.79	9.85339
3369.31	-0.108227
3371.84	6.92606
3374.37	9.95606
3376.9	13.9818
3379.42	10.003
3381.95	32.0202
3384.47	35.0322
3386.99	7.03963
3389.52	41.042
3392.04	29.0396
3394.56	39.032
3397.08	17.01926
3399.6	25.0014
3402.12	48.978
3404.63	39.9492
3407.15	11.9148
3409.66	37.8747
3412.179	23.8288
3414.69	14.77717
3417.21	16.7193
3419.72	11.6555
3422.23	43.5854
3424.74	49.509
3427.25	37.4261
3429.76	34.33622
3432.27	26.2402
3434.77	34.1374
3437.28	37.0278
3439.79	26.9111
3442.29	44.7873
3444.79	42.6559
3447.3	33.5177
3449.8	47.3721
3452.3	20.2189
3454.8	44.0575
3457.3	49.889
3459.8	76.7125
3462.3	28.5276
3464.79	-0.664929
3467.29	61.1344
3469.79	37.9254
3472.28	36.7074
3474.77	44.4815
3477.27	29.2463
3479.76	61.0029
3482.25	31.7506
3484.741	29.4888
3487.23	41.2184
3489.72	33.9383
3492.21	37.6493
3494.69	24.3504
3497.18	17.0423
3499.666	46.7242
3502.15	44.3966
3504.63	28.0588
3507.12	45.71125
3509.6	27.3532
3512.08	44.98526
3514.56	26.60655
3517.04	24.2173
3519.521	50.8178
3522	56.4072
3524.48	57.9861
3526.95	19.5536
3529.43	51.1101
3531.9	19.6557
3534.38	66.1896
3536.85	44.7121
3539.32	70.223
3541.79	24.7225
3544.26	39.2098
3546.73	61.6852
3549.2	60.14864
3551.67	54.60009
3554.14	27.039
3556.61	65.4655
3559.07	54.8795
3561.54	29.2808
3564	35.6693
3566.46	53.0451
3568.93	41.4077
3571.39	58.7571
3573.85	64.0933
3576.31	53.4161
3578.77	33.7253
3581.23	42.021
3583.68	64.3028
3586.14	63.5708
3588.6	68.8248
3591.052	70.0647
3593.51	39.2903
3595.96	65.5015
3598.41	45.69825
3600.865	48.8804
3603.32	50.0477
3605.77	69.2002
3608.22	41.3377
3610.665	20.4601
3613.11	40.5672
3615.56	57.659
3618.01	67.7353
3620.45	60.79599
3622.896	35.8409
3625.34	47.87
3627.78	41.8831
3630.22	37.8801
3632.67	15.8608
3635.11	39.8252
3637.55	30.7731
3639.99	25.7044
3642.42	23.6189
3644.86	36.5166
3647.3	41.3973
3649.73	0.260844
3652.17	38.1072
3654.6	56.9362
3657.04	26.7477
3659.47	65.5416
3661.9	16.3177