File: data/SEM_Raman_Data/KZPd_171009-4/20171009-4 on SiO2_26.txt
672.793	283
676.3017	287
679.809	283
683.316	312
686.818	269
690.322	253
693.824	273
697.325	267
700.825	272
704.321	249
707.8175	244
711.313	237
714.807	230
718.3	226
721.789	243
725.279	238
728.768	225
732.255	220
735.7392	231
739.224	219
742.707	207
746.187	231
749.668	196
753.147	229
756.623	193
760.1	215
763.575	209
767.047	228
770.519	216
773.9906	219
777.4585	217
780.927	220
784.394	199
787.858	231
791.323	211
794.784	239
798.246	208
801.705	235
805.164	223
808.6217	209
812.076	217
815.532	212
818.984	208
822.436	218
825.885	230
829.335	228
832.782	203
836.229	223
839.673	202
843.118	199
846.559	221
849.999	232
853.44	200
856.878	192
860.316	208
863.75	219
867.186	222
870.618	211
874.049	198
877.48	197
880.909	224
884.335	204
887.763	202
891.187	205
894.612	206
898.034	210
901.454	212
904.873	224
908.293	212
911.709	223
915.124	202
918.54	222
921.953	207
925.364	219
928.774	206
932.184	239
935.592	284
938.998	321
942.402	399
945.8078	480
949.21	537
952.611	570
956.01	582
959.409	581
962.805	542
966.203	521
969.597	564
972.99	546
976.3822	521
979.773	511
983.162	557
986.55	528
989.936	544
993.324	500
996.708	438
1000.09	362
1003.47	316
1006.852	298
1010.23	274
1013.61	260
1016.98	228
1020.36	246
1023.73	197
1027.11	199
1030.48	174
1033.85	177
1037.22	185
1040.58	151
1043.95	150
1047.31	141
1050.68	146
1054.04	162
1057.4	139
1060.76	158
1064.12	142
1067.47	120
1070.83	119
1074.18	131
1077.54	131
1080.89	139
1084.24	152
1087.59	127
1090.937	117
1094.28	109
1097.63	118
1100.97	126
1104.32	115
1107.66	112
1111	119
1114.34	127
1117.68	125
1121.01	119
1124.35	132
1127.68	150
1131.014	141
1134.344	117
1137.67	107
1141.004	119
1144.33	143
1147.66	127
1150.98	128
1154.31	138
1157.63	132
1160.95	121
1164.27	118
1167.59	122
1170.91	121
1174.22	128
1177.54	123
1180.85	121
1184.16	118
1187.47	129
1190.78	119
1194.09	96
1197.4	132
1200.71	113
1204.01	119
1207.31	114
1210.615	115
1213.92	111
1217.22	111
1220.52	122
1223.81	116
1227.11	118
1230.4	112
1233.7	114
1236.99	124
1240.28	111
1243.57	103
1246.86	108
1250.15	101
1253.43	102
1256.71	108
1259.999	99
1263.28	107
1266.56	107
1269.84	114
1273.12	118
1276.4	111
1279.67	93
1282.95	113
1286.22	102
1289.49	108
1292.76	98
1296.03	115
1299.304	127
1302.57	102
1305.84	110
1309.1	109
1312.37	110
1315.63	106
1318.89	114
1322.15	117
1325.41	121
1328.67	105
1331.92	132
1335.18	116
1338.43	105
1341.68	106
1344.93	125
1348.18	134
1351.43	113
1354.68	117
1357.93	133
1361.17	108
1364.42	102
1367.66	122
1370.9	105
1374.14	101
1377.38	99
1380.616	109
1383.85	101
1387.09	101
1390.322	107
1393.55	110
1396.79	123
1400.02	106
1403.25	116
1406.47	111
1409.7	93
1412.93	99
1416.15	105
1419.38	112
1422.6	105
1425.82	103
1429.04	111
1432.25	88
1435.47	110
1438.69	85
1441.9	88
1445.12	98
1448.33	99
1451.54	82
1454.75	105
1457.96	107
1461.17	107
1464.37	103
1467.58	102
1470.78	102
1473.98	101
1477.19	92
1480.39	115
1483.58	94
1486.78	96
1489.98	104
1493.17	116
1496.37	94
1499.563	103
1502.75	101
1505.94	103
1509.14	88
1512.32	97
1515.51	107
1518.7	105
1521.88	105
1525.06	87
1528.25	95
1531.43	106
1534.61	100
1537.79	111
1540.96	100
1544.14	101
1547.32	113
1550.489	108
1553.66	91
1556.83	106
1560	115
1563.17	96
1566.34	111
1569.51	116
1572.675	118
1575.84	131
1579	153
1582.16	175
1585.32	245
1588.49	331
1591.64	519
1594.8	613
1597.96	577
1601.11	392
1604.27	240
1607.42	162
1610.57	115
1613.72	109
1616.871	90
1620.02	108
1623.17	118
1626.31	109
1629.46	106
1632.6	99
1635.74	94
1638.88	107
1642.02	94
1645.16	91
1648.3	92
1651.44	94
1654.57	82
1657.7	79
1660.84	86
1663.97	95
1667.1	77
1670.23	79
1673.36	84
1676.48	77
1679.61	81
1682.74	85
1685.86	93
1688.98	84
1692.1	83
1695.22	76
1698.34	81
1701.46	69
1704.58	85
1707.69	80
1710.81	72
1713.92	68
1717.03	72
1720.14	78
1723.25	93
1726.36	70
1729.47	76
1732.58	79
1735.68	77
1738.78	72
1741.89	75
1744.99	88
1748.09	71
1751.19	87
1754.29	71
1757.39	78
1760.48	71
1763.58	69
1766.67	76
1769.76	83
1772.85	76
1775.94	82
1779.03	61
1782.12	78
1785.21	83
1788.29	59
1791.379	84
1794.46	77
1797.54	71
1800.63	77
1803.7	59
1806.78	69
1809.86	81
1812.94	68
1816.01	74
1819.09	78
1822.16	75
1825.23	75
1828.31	69
1831.38	97
1834.44	78
1837.51	75
1840.58	66
1843.64	76
1846.71	75
1849.77	81
1852.83	80
1855.89	72
1858.95	72
1862.01	81
1865.07	80
1868.125	71
1871.18	71
1874.23	85
1877.29	85
1880.34	73
1883.39	78
1886.44	67
1889.49	77
1892.54	72
1895.58	66
1898.63	67
1901.67	67
1904.72	68
1907.76	71
1910.8	69
1913.84	66
1916.88	73
1919.91	62
1922.95	80
1925.98	70
1929.02	69
1932.052	64
1935.08	72
1938.11	67
1941.14	77
1944.17	79
1947.2	67
1950.23	64
1953.25	67
1956.28	81
1959.3	69
1962.32	66
1965.34	77
1968.36	86
1971.38	71
1974.4	74
1977.41	71
1980.43	79
1983.44	80
1986.46	65
1989.469	77
1992.48	70
1995.49	65
1998.498	58
2001.51	65
2004.512	72
2007.52	67
2010.52	80
2013.52	60
2016.527	66
2019.53	63
2022.528	66
2025.527	68
2028.52	78
2031.52	64
2034.52	79
2037.51	69
2040.51	66
2043.5	67
2046.49	70
2049.478	66
2052.47	66
2055.46	53
2058.44	49
2061.43	61
2064.41	60
2067.4	59
2070.38	81
2073.36	65
2076.34	61
2079.32	64
2082.3	56
2085.28	71
2088.25	59
2091.23	69
2094.2	59
2097.17	59
2100.146	64
2103.12	68
2106.09	64
2109.05	56
2112.02	57
2114.99	77
2117.95	60
2120.92	73
2123.88	46
2126.844	57
2129.804	65
2132.76	58
2135.72	61
2138.68	72
2141.64	71
2144.59	66
2147.55	67
2150.5	63
2153.46	56
2156.41	61
2159.36	51
2162.31	64
2165.25	51
2168.2	68
2171.15	59
2174.09	67
2177.04	53
2179.98	65
2182.92	54
2185.86	48
2188.8	68
2191.74	56
2194.68	58
2197.61	59
2200.551	67
2203.48	76
2206.418	59
2209.35	71
2212.28	53
2215.21	59
2218.14	57
2221.07	65
2224	53
2226.92	62
2229.85	74
2232.77	63
2235.69	65
2238.62	72
2241.54	61
2244.46	66
2247.38	56
2250.29	55
2253.21	69
2256.13	57
2259.04	68
2261.95	71
2264.87	73
2267.78	73
2270.69	51
2273.6	70
2276.51	62
2279.41	62
2282.32	63
2285.22	75
2288.13	60
2291.031	61
2293.93	57
2296.834	58
2299.73	58
2302.63	48
2305.53	63
2308.43	47
2311.32	55
2314.22	54
2317.11	55
2320.01	45
2322.9	48
2325.79	57
2328.676	44
2331.56	61
2334.45	63
2337.34	61
2340.23	60
2343.11	60
2345.99	59
2348.87	67
2351.76	60
2354.64	51
2357.52	57
2360.39	53
2363.27	62
2366.15	47
2369.02	61
2371.9	55
2374.77	60
2377.64	60
2380.51	48
2383.38	60
2386.25	55
2389.12	49
2391.99	51
2394.853	61
2397.72	64
2400.58	63
2403.45	68
2406.31	60
2409.17	51
2412.03	62
2414.89	68
2417.74	65
2420.6	59
2423.46	68
2426.31	66
2429.16	60
2432.02	61
2434.87	71
2437.72	67
2440.57	73
2443.42	78
2446.27	76
2449.11	63
2451.96	73
2454.8	80
2457.65	86
2460.49	75
2463.33	100
2466.17	98
2469.01	100
2471.85	91
2474.69	93
2477.53	82
2480.36	79
2483.19	95
2486.03	74
2488.86	70
2491.69	62
2494.52	66
2497.35	76
2500.18	65
2503.01	85
2505.84	64
2508.66	82
2511.49	67
2514.31	68
2517.13	60
2519.95	59
2522.78	47
2525.59	56
2528.41	62
2531.23	53
2534.05	55
2536.86	60
2539.68	68
2542.491	65
2545.3	62
2548.12	59
2550.93	61
2553.74	57
2556.54	59
2559.35	65
2562.16	64
2564.96	63
2567.77	55
2570.57	51
2573.375	67
2576.177	63
2578.978	67
2581.78	58
2584.58	64
2587.375	66
2590.17	58
2592.97	72
2595.762	62
2598.56	63
2601.35	66
2604.14	64
2606.93	71
2609.72	68
2612.51	75
2615.3	72
2618.09	74
2620.87	83
2623.658	66
2626.44	81
2629.22	77
2632.01	89
2634.79	99
2637.57	89
2640.35	95
2643.13	109
2645.9	136
2648.68	134
2651.45	140
2654.23	187
2657	205
2659.77	244
2662.55	277
2665.32	361
2668.09	445
2670.85	498
2673.62	597
2676.39	746
2679.15	781
2681.92	908
2684.68	942
2687.45	997
2690.21	950
2692.968	905
2695.73	830
2698.49	714
2701.24	596
2704.001	464
2706.76	376
2709.51	313
2712.27	266
2715.02	206
2717.772	179
2720.52	163
2723.27	139
2726.02	132
2728.77	125
2731.52	112
2734.26	115
2737.01	85
2739.75	92
2742.5	79
2745.24	79
2747.98	80
2750.72	91
2753.46	76
2756.2	79
2758.939	64
2761.68	68
2764.41	61
2767.15	66
2769.88	68
2772.613	64
2775.345	65
2778.08	72
2780.81	56
2783.54	60
2786.26	73
2788.991	56
2791.72	64
2794.44	62
2797.17	63
2799.89	49
2802.61	51
2805.334	52
2808.05	58
2810.77	61
2813.49	57
2816.21	59
2818.93	52
2821.65	49
2824.36	67
2827.07	62
2829.79	48
2832.5	53
2835.21	54
2837.92	61
2840.63	65
2843.34	59
2846.05	55
2848.75	59
2851.46	62
2854.16	61
2856.87	54
2859.57	54
2862.272	63
2864.97	56
2867.67	53
2870.37	48
2873.07	51
2875.77	51
2878.46	53
2881.16	53
2883.85	50
2886.55	48
2889.24	55
2891.93	50
2894.62	47
2897.311	41
2900	57
2902.688	63
2905.37	65
2908.061	53
2910.75	52
2913.43	55
2916.11	68
2918.8	50
2921.48	52
2924.16	50
2926.84	60
2929.52	51
2932.19	54
2934.87	59
2937.55	37
2940.22	45
2942.89	42
2945.57	51
2948.24	49
2950.91	54
2953.58	56
2956.25	42
2958.92	55
2961.59	44
2964.25	50
2966.92	52
2969.59	49
2972.25	57
2974.91	62
2977.57	44
2980.24	50
2982.9	47
2985.55	52
2988.21	34
2990.87	40
2993.53	54
2996.18	50
2998.84	56
3001.49	43
3004.14	55
3006.8	43
3009.45	43
3012.1	54
3014.75	43
3017.396	47
3020.04	55
3022.69	54
3025.34	46
3027.98	50
3030.63	48
3033.27	44
3035.91	55
3038.55	42
3041.19	48
3043.83	47
3046.47	40
3049.11	41
3051.74	49
3054.38	48
3057.01	56
3059.65	59
3062.281	42
3064.91	47
3067.55	40
3070.17	53
3072.8	48
3075.43	44
3078.06	52
3080.69	42
3083.31	48
3085.94	44
3088.563	47
3091.19	37
3093.81	52
3096.43	54
3099.05	43
3101.67	45
3104.29	44
3106.91	36
3109.52	47
3112.14	51
3114.75	54
3117.37	43
3119.98	44
3122.59	38
3125.21	43
3127.82	54
3130.427	51
3133.04	40
3135.64	42
3138.251	44
3140.86	49
3143.46	36
3146.07	54
3148.67	47
3151.27	56
3153.874	54
3156.48	52
3159.08	41
3161.67	50
3164.27	40
3166.87	44
3169.47	56
3172.06	38
3174.66	41
3177.251	52
3179.85	58
3182.437	40
3185.03	59
3187.62	43
3190.21	36
3192.8	59
3195.38	41
3197.97	53
3200.56	41
3203.14	51
3205.73	43
3208.31	60
3210.89	55
3213.47	47
3216.054	51
3218.63	38
3221.21	42
3223.791	34
3226.37	38
3228.95	43
3231.52	43
3234.1	49
3236.67	55
3239.241	62
3241.81	57
3244.38	56
3246.96	83
3249.52	95
3252.09	108
3254.66	104
3257.23	111
3259.79	91
3262.36	82
3264.92	69
3267.49	59
3270.05	46
3272.61	53
3275.17	51
3277.73	42
3280.29	50
3282.85	41
3285.41	40
3287.96	44
3290.52	35
3293.07	40
3295.63	43
3298.18	39
3300.73	45
3303.28	44
3305.83	37
3308.38	58
3310.93	44
3313.479	45
3316.03	41
3318.57	49
3321.12	40
3323.66	32
3326.21	46
3328.75	46
3331.29	50
3333.83	41
3336.37	30
3338.91	40
3341.448	34
3343.99	36
3346.52	28
3349.06	42
3351.593	48
3354.13	50
3356.66	30
3359.19	45
3361.72	42
3364.25	46
3366.79	36
3369.31	43
3371.84	40
3374.37	48
3376.9	36
3379.42	44
3381.95	41
3384.47	36
3386.99	41
3389.52	35
3392.04	45
3394.56	32
3397.08	37
3399.6	41
3402.12	40
3404.63	42
3407.15	43
3409.66	49
3412.179	34
3414.69	47
3417.21	36
3419.72	33
3422.23	42
3424.74	47
3427.25	30
3429.76	44
3432.27	53
3434.77	41
3437.28	43
3439.79	43
3442.29	35
3444.79	45
3447.3	38
3449.8	42
3452.3	40
3454.8	38
3457.3	42
3459.8	37
3462.3	44
3464.79	43
3467.29	34
3469.79	34
3472.28	45
3474.77	44
3477.27	43
3479.76	39
3482.25	37
3484.741	39
3487.23	36
3489.72	42
3492.21	38
3494.69	48
3497.18	47
3499.666	46
3502.15	40
3504.63	39
3507.12	47
3509.6	47
3512.08	47
3514.56	40
3517.04	46
3519.521	37
3522	35
3524.48	44
3526.95	35
3529.43	44
3531.9	34
3534.38	39
3536.85	42
3539.32	40
3541.79	42
3544.26	38
3546.73	45
3549.2	32
3551.67	41
3554.14	43
3556.61	44
3559.07	39
3561.54	32
3564	48
3566.46	35
3568.93	42
3571.39	38
3573.85	37
3576.31	42
3578.77	34
3581.23	42
3583.68	33
3586.14	34
3588.6	35
3591.052	38
3593.51	35
3595.96	39
3598.41	33
3600.865	37
3603.32	39
3605.77	41
3608.22	36
3610.665	35
3613.11	46
3615.56	36
3618.01	36
3620.45	25
3622.896	36
3625.34	35
3627.78	31
3630.22	40
3632.67	38
3635.11	38
3637.55	38
3639.99	44
3642.42	35
3644.86	32
3647.3	28
3649.73	39
3652.17	26
3654.6	31
3657.04	34
3659.47	36
3661.9	34