File: data/SEM_Raman_Data/KZPd_180416-3/sample.txt
672.793	282
676.3017	291
679.809	317
683.316	283
686.818	273
690.322	279
693.824	274
697.325	274
700.825	271
704.321	249
707.8175	235
711.313	241
714.807	230
718.3	217
721.789	245
725.279	227
728.768	213
732.255	206
735.7392	236
739.224	205
742.707	225
746.187	218
749.668	219
753.147	246
756.623	218
760.1	228
763.575	223
767.047	230
770.519	212
773.9906	224
777.4585	223
780.927	229
784.394	240
787.858	228
791.323	244
794.784	225
798.246	241
801.705	242
805.164	221
808.6217	244
812.076	226
815.532	236
818.984	241
822.436	234
825.885	231
829.335	223
832.782	231
836.229	227
839.673	208
843.118	216
846.559	190
849.999	207
853.44	218
856.878	215
860.316	235
863.75	207
867.186	227
870.618	232
874.049	221
877.48	216
880.909	187
884.335	217
887.763	230
891.187	212
894.612	225
898.034	223
901.454	218
904.873	241
908.293	242
911.709	222
915.124	219
918.54	225
921.953	232
925.364	251
928.774	275
932.184	328
935.592	392
938.998	483
942.402	557
945.8078	558
949.21	533
952.611	537
956.01	509
959.409	531
962.805	533
966.203	524
969.597	539
972.99	512
976.3822	536
979.773	519
983.162	532
986.55	512
989.936	432
993.324	368
996.708	316
1000.09	284
1003.47	266
1006.852	268
1010.23	222
1013.61	235
1016.98	214
1020.36	208
1023.73	210
1027.11	191
1030.48	161
1033.85	144
1037.22	155
1040.58	150
1043.95	148
1047.31	137
1050.68	150
1054.04	143
1057.4	144
1060.76	168
1064.12	145
1067.47	135
1070.83	144
1074.18	132
1077.54	127
1080.89	142
1084.24	131
1087.59	130
1090.937	149
1094.28	122
1097.63	153
1100.97	136
1104.32	124
1107.66	129
1111	138
1114.34	138
1117.68	119
1121.01	148
1124.35	111
1127.68	135
1131.014	137
1134.344	141
1137.67	114
1141.004	131
1144.33	134
1147.66	122
1150.98	121
1154.31	120
1157.63	121
1160.95	140
1164.27	134
1167.59	140
1170.91	134
1174.22	137
1177.54	116
1180.85	130
1184.16	116
1187.47	116
1190.78	133
1194.09	109
1197.4	115
1200.71	122
1204.01	122
1207.31	129
1210.615	131
1213.92	114
1217.22	129
1220.52	124
1223.81	124
1227.11	112
1230.4	121
1233.7	115
1236.99	126
1240.28	119
1243.57	115
1246.86	112
1250.15	104
1253.43	120
1256.71	120
1259.999	126
1263.28	120
1266.56	121
1269.84	105
1273.12	118
1276.4	127
1279.67	134
1282.95	110
1286.22	109
1289.49	116
1292.76	125
1296.03	121
1299.304	115
1302.57	109
1305.84	119
1309.1	138
1312.37	115
1315.63	118
1318.89	116
1322.15	117
1325.41	117
1328.67	129
1331.92	102
1335.18	149
1338.43	135
1341.68	133
1344.93	107
1348.18	130
1351.43	107
1354.68	137
1357.93	113
1361.17	126
1364.42	110
1367.66	116
1370.9	119
1374.14	118
1377.38	115
1380.616	125
1383.85	125
1387.09	122
1390.322	122
1393.55	104
1396.79	107
1400.02	123
1403.25	117
1406.47	108
1409.7	120
1412.93	111
1416.15	107
1419.38	116
1422.6	108
1425.82	114
1429.04	117
1432.25	109
1435.47	90
1438.69	98
1441.9	110
1445.12	112
1448.33	120
1451.54	99
1454.75	115
1457.96	112
1461.17	117
1464.37	104
1467.58	112
1470.78	118
1473.98	103
1477.19	93
1480.39	117
1483.58	117
1486.78	101
1489.98	115
1493.17	93
1496.37	107
1499.563	103
1502.75	97
1505.94	101
1509.14	108
1512.32	106
1515.51	106
1518.7	85
1521.88	108
1525.06	106
1528.25	102
1531.43	109
1534.61	109
1537.79	112
1540.96	104
1544.14	94
1547.32	93
1550.489	107
1553.66	114
1556.83	102
1560	112
1563.17	112
1566.34	127
1569.51	134
1572.675	180
1575.84	186
1579	280
1582.16	354
1585.32	479
1588.49	548
1591.64	454
1594.8	282
1597.96	192
1601.11	155
1604.27	134
1607.42	116
1610.57	116
1613.72	120
1616.871	106
1620.02	109
1623.17	116
1626.31	102
1629.46	98
1632.6	106
1635.74	105
1638.88	100
1642.02	107
1645.16	113
1648.3	111
1651.44	92
1654.57	106
1657.7	92
1660.84	90
1663.97	94
1667.1	88
1670.23	73
1673.36	88
1676.48	96
1679.61	102
1682.74	82
1685.86	94
1688.98	77
1692.1	74
1695.22	77
1698.34	90
1701.46	87
1704.58	67
1707.69	80
1710.81	92
1713.92	83
1717.03	87
1720.14	85
1723.25	84
1726.36	89
1729.47	85
1732.58	79
1735.68	78
1738.78	95
1741.89	91
1744.99	82
1748.09	82
1751.19	74
1754.29	80
1757.39	70
1760.48	90
1763.58	83
1766.67	77
1769.76	79
1772.85	79
1775.94	72
1779.03	84
1782.12	82
1785.21	94
1788.29	96
1791.379	84
1794.46	74
1797.54	73
1800.63	84
1803.7	80
1806.78	80
1809.86	89
1812.94	92
1816.01	71
1819.09	107
1822.16	74
1825.23	87
1828.31	92
1831.38	76
1834.44	89
1837.51	75
1840.58	89
1843.64	75
1846.71	101
1849.77	86
1852.83	81
1855.89	92
1858.95	82
1862.01	80
1865.07	81
1868.125	80
1871.18	73
1874.23	86
1877.29	96
1880.34	63
1883.39	89
1886.44	77
1889.49	90
1892.54	103
1895.58	89
1898.63	83
1901.67	65
1904.72	78
1907.76	88
1910.8	80
1913.84	76
1916.88	88
1919.91	63
1922.95	71
1925.98	81
1929.02	76
1932.052	74
1935.08	66
1938.11	81
1941.14	78
1944.17	82
1947.2	76
1950.23	80
1953.25	92
1956.28	76
1959.3	86
1962.32	81
1965.34	77
1968.36	87
1971.38	99
1974.4	74
1977.41	74
1980.43	89
1983.44	93
1986.46	81
1989.469	82
1992.48	78
1995.49	72
1998.498	83
2001.51	67
2004.512	79
2007.52	85
2010.52	77
2013.52	82
2016.527	72
2019.53	71
2022.528	73
2025.527	68
2028.52	79
2031.52	76
2034.52	80
2037.51	81
2040.51	68
2043.5	80
2046.49	70
2049.478	66
2052.47	78
2055.46	85
2058.44	73
2061.43	72
2064.41	75
2067.4	74
2070.38	68
2073.36	70
2076.34	79
2079.32	77
2082.3	66
2085.28	67
2088.25	74
2091.23	89
2094.2	81
2097.17	75
2100.146	68
2103.12	79
2106.09	72
2109.05	69
2112.02	85
2114.99	54
2117.95	71
2120.92	81
2123.88	90
2126.844	77
2129.804	77
2132.76	78
2135.72	64
2138.68	70
2141.64	70
2144.59	63
2147.55	77
2150.5	76
2153.46	79
2156.41	65
2159.36	63
2162.31	68
2165.25	73
2168.2	63
2171.15	69
2174.09	74
2177.04	57
2179.98	60
2182.92	63
2185.86	73
2188.8	70
2191.74	70
2194.68	77
2197.61	71
2200.551	78
2203.48	66
2206.418	78
2209.35	78
2212.28	57
2215.21	71
2218.14	83
2221.07	57
2224	65
2226.92	77
2229.85	66
2232.77	74
2235.69	71
2238.62	68
2241.54	69
2244.46	66
2247.38	58
2250.29	81
2253.21	73
2256.13	73
2259.04	70
2261.95	83
2264.87	86
2267.78	77
2270.69	76
2273.6	74
2276.51	68
2279.41	63
2282.32	67
2285.22	70
2288.13	73
2291.031	66
2293.93	61
2296.834	81
2299.73	69
2302.63	63
2305.53	67
2308.43	62
2311.32	76
2314.22	61
2317.11	67
2320.01	70
2322.9	63
2325.79	67
2328.676	67
2331.56	73
2334.45	71
2337.34	79
2340.23	63
2343.11	75
2345.99	65
2348.87	59
2351.76	65
2354.64	58
2357.52	69
2360.39	75
2363.27	62
2366.15	62
2369.02	64
2371.9	74
2374.77	76
2377.64	67
2380.51	74
2383.38	71
2386.25	69
2389.12	58
2391.99	73
2394.853	67
2397.72	71
2400.58	64
2403.45	51
2406.31	57
2409.17	67
2412.03	70
2414.89	70
2417.74	59
2420.6	75
2423.46	72
2426.31	63
2429.16	69
2432.02	68
2434.87	71
2437.72	75
2440.57	80
2443.42	84
2446.27	91
2449.11	89
2451.96	104
2454.8	106
2457.65	116
2460.49	103
2463.33	96
2466.17	95
2469.01	100
2471.85	83
2474.69	71
2477.53	83
2480.36	77
2483.19	79
2486.03	89
2488.86	81
2491.69	57
2494.52	72
2497.35	72
2500.18	82
2503.01	60
2505.84	82
2508.66	80
2511.49	81
2514.31	75
2517.13	72
2519.95	70
2522.78	65
2525.59	67
2528.41	77
2531.23	73
2534.05	61
2536.86	71
2539.68	69
2542.491	72
2545.3	65
2548.12	50
2550.93	67
2553.74	66
2556.54	75
2559.35	76
2562.16	69
2564.96	70
2567.77	72
2570.57	58
2573.375	82
2576.177	71
2578.978	69
2581.78	68
2584.58	67
2587.375	67
2590.17	79
2592.97	76
2595.762	62
2598.56	61
2601.35	68
2604.14	78
2606.93	80
2609.72	73
2612.51	76
2615.3	89
2618.09	76
2620.87	89
2623.658	76
2626.44	92
2629.22	107
2632.01	83
2634.79	106
2637.57	118
2640.35	110
2643.13	120
2645.9	154
2648.68	174
2651.45	205
2654.23	247
2657	263
2659.77	338
2662.55	433
2665.32	496
2668.09	626
2670.85	715
2673.62	782
2676.39	864
2679.15	942
2681.92	951
2684.68	879
2687.45	792
2690.21	729
2692.968	610
2695.73	557
2698.49	481
2701.24	378
2704.001	277
2706.76	291
2709.51	232
2712.27	201
2715.02	182
2717.772	197
2720.52	157
2723.27	131
2726.02	118
2728.77	97
2731.52	108
2734.26	88
2737.01	82
2739.75	89
2742.5	81
2745.24	80
2747.98	81
2750.72	74
2753.46	85
2756.2	70
2758.939	77
2761.68	70
2764.41	68
2767.15	72
2769.88	80
2772.613	66
2775.345	65
2778.08	64
2780.81	51
2783.54	62
2786.26	60
2788.991	57
2791.72	76
2794.44	76
2797.17	55
2799.89	64
2802.61	71
2805.334	69
2808.05	59
2810.77	60
2813.49	64
2816.21	60
2818.93	62
2821.65	57
2824.36	62
2827.07	55
2829.79	56
2832.5	68
2835.21	58
2837.92	57
2840.63	67
2843.34	62
2846.05	69
2848.75	60
2851.46	58
2854.16	53
2856.87	66
2859.57	61
2862.272	58
2864.97	48
2867.67	70
2870.37	56
2873.07	55
2875.77	69
2878.46	52
2881.16	59
2883.85	61
2886.55	53
2889.24	56
2891.93	47
2894.62	55
2897.311	64
2900	72
2902.688	45
2905.37	46
2908.061	54
2910.75	56
2913.43	55
2916.11	50
2918.8	50
2921.48	59
2924.16	60
2926.84	57
2929.52	70
2932.19	68
2934.87	51
2937.55	57
2940.22	55
2942.89	59
2945.57	55
2948.24	53
2950.91	48
2953.58	58
2956.25	58
2958.92	50
2961.59	52
2964.25	56
2966.92	55
2969.59	44
2972.25	48
2974.91	46
2977.57	56
2980.24	58
2982.9	61
2985.55	46
2988.21	54
2990.87	51
2993.53	44
2996.18	52
2998.84	57
3001.49	55
3004.14	53
3006.8	43
3009.45	53
3012.1	58
3014.75	55
3017.396	62
3020.04	59
3022.69	58
3025.34	56
3027.98	47
3030.63	48
3033.27	57
3035.91	51
3038.55	66
3041.19	50
3043.83	49
3046.47	46
3049.11	59
3051.74	53
3054.38	50
3057.01	47
3059.65	47
3062.281	44
3064.91	69
3067.55	56
3070.17	65
3072.8	59
3075.43	62
3078.06	48
3080.69	50
3083.31	44
3085.94	58
3088.563	56
3091.19	53
3093.81	49
3096.43	56
3099.05	56
3101.67	58
3104.29	52
3106.91	43
3109.52	51
3112.14	44
3114.75	54
3117.37	58
3119.98	55
3122.59	38
3125.21	52
3127.82	59
3130.427	58
3133.04	57
3135.64	56
3138.251	54
3140.86	54
3143.46	39
3146.07	45
3148.67	49
3151.27	51
3153.874	35
3156.48	51
3159.08	62
3161.67	49
3164.27	62
3166.87	55
3169.47	43
3172.06	42
3174.66	42
3177.251	56
3179.85	48
3182.437	57
3185.03	41
3187.62	45
3190.21	38
3192.8	46
3195.38	55
3197.97	42
3200.56	46
3203.14	50
3205.73	55
3208.31	46
3210.89	45
3213.47	48
3216.054	60
3218.63	49
3221.21	49
3223.791	47
3226.37	52
3228.95	48
3231.52	56
3234.1	70
3236.67	85
3239.241	84
3241.81	90
3244.38	100
3246.96	119
3249.52	107
3252.09	82
3254.66	66
3257.23	66
3259.79	64
3262.36	46
3264.92	57
3267.49	51
3270.05	45
3272.61	61
3275.17	55
3277.73	53
3280.29	47
3282.85	50
3285.41	49
3287.96	56
3290.52	51
3293.07	43
3295.63	45
3298.18	40
3300.73	48
3303.28	38
3305.83	40
3308.38	47
3310.93	43
3313.479	51
3316.03	34
3318.57	53
3321.12	52
3323.66	41
3326.21	43
3328.75	45
3331.29	49
3333.83	36
3336.37	49
3338.91	43
3341.448	48
3343.99	39
3346.52	45
3349.06	49
3351.593	48
3354.13	43
3356.66	42
3359.19	40
3361.72	48
3364.25	45
3366.79	35
3369.31	41
3371.84	38
3374.37	47
3376.9	47
3379.42	50
3381.95	41
3384.47	43
3386.99	51
3389.52	34
3392.04	44
3394.56	38
3397.08	39
3399.6	47
3402.12	41
3404.63	43
3407.15	59
3409.66	40
3412.179	37
3414.69	43
3417.21	43
3419.72	52
3422.23	50
3424.74	33
3427.25	41
3429.76	43
3432.27	41
3434.77	44
3437.28	46
3439.79	41
3442.29	45
3444.79	48
3447.3	46
3449.8	53
3452.3	49
3454.8	41
3457.3	43
3459.8	47
3462.3	42
3464.79	43
3467.29	44
3469.79	40
3472.28	44
3474.77	49
3477.27	49
3479.76	36
3482.25	43
3484.741	34
3487.23	42
3489.72	46
3492.21	41
3494.69	36
3497.18	40
3499.666	36
3502.15	44
3504.63	44
3507.12	37
3509.6	40
3512.08	45
3514.56	50
3517.04	32
3519.521	53
3522	49
3524.48	34
3526.95	42
3529.43	34
3531.9	36
3534.38	39
3536.85	41
3539.32	41
3541.79	47
3544.26	38
3546.73	40
3549.2	44
3551.67	39
3554.14	42
3556.61	37
3559.07	36
3561.54	42
3564	38
3566.46	38
3568.93	41
3571.39	31
3573.85	39
3576.31	40
3578.77	44
3581.23	40
3583.68	41
3586.14	42
3588.6	48
3591.052	48
3593.51	50
3595.96	45
3598.41	45
3600.865	35
3603.32	45
3605.77	44
3608.22	37
3610.665	42
3613.11	44
3615.56	48
3618.01	41
3620.45	35
3622.896	33
3625.34	38
3627.78	41
3630.22	36
3632.67	42
3635.11	37
3637.55	44
3639.99	44
3642.42	41
3644.86	38
3647.3	39
3649.73	38
3652.17	45
3654.6	36
3657.04	38
3659.47	44
3661.9	38