File: data/SEM_Raman_Data/KZPd_180423-1/sample.txt
672.793	2755
676.3017	2723
679.809	2668
683.316	2533
686.818	2552
690.322	2437
693.824	2337
697.325	2401
700.825	2296
704.321	2289
707.8175	2366
711.313	2272
714.807	2160
718.3	2144
721.789	2250
725.279	2131
728.768	2150
732.255	2126
735.7392	2051
739.224	2079
742.707	2059
746.187	2027
749.668	2020
753.147	2037
756.623	2026
760.1	2089
763.575	2088
767.047	2140
770.519	2156
773.9906	2145
777.4585	2060
780.927	2103
784.394	2067
787.858	2074
791.323	2118
794.784	2141
798.246	2209
801.705	2160
805.164	2207
808.6217	2167
812.076	2145
815.532	2156
818.984	2186
822.436	2189
825.885	2182
829.335	2126
832.782	2073
836.229	2060
839.673	2073
843.118	2005
846.559	2021
849.999	2054
853.44	1966
856.878	1961
860.316	2047
863.75	1976
867.186	1992
870.618	2006
874.049	1988
877.48	2021
880.909	1986
884.335	2002
887.763	1985
891.187	2062
894.612	2017
898.034	1982
901.454	2004
904.873	2061
908.293	2074
911.709	2165
915.124	2097
918.54	2346
921.953	2594
925.364	3067
928.774	3920
932.184	4586
935.592	5332
938.998	5600
942.402	5407
945.8078	5380
949.21	5388
952.611	5269
956.01	5329
959.409	5397
962.805	5455
966.203	5342
969.597	5472
972.99	5425
976.3822	5377
979.773	5121
983.162	4565
986.55	3798
989.936	3188
993.324	2824
996.708	2604
1000.09	2482
1003.47	2272
1006.852	2171
1010.23	2101
1013.61	1926
1016.98	1776
1020.36	1690
1023.73	1647
1027.11	1545
1030.48	1469
1033.85	1453
1037.22	1396
1040.58	1341
1043.95	1308
1047.31	1308
1050.68	1257
1054.04	1247
1057.4	1229
1060.76	1250
1064.12	1252
1067.47	1267
1070.83	1237
1074.18	1234
1077.54	1209
1080.89	1182
1084.24	1135
1087.59	1255
1090.937	1221
1094.28	1180
1097.63	1195
1100.97	1208
1104.32	1224
1107.66	1249
1111	1235
1114.34	1239
1117.68	1261
1121.01	1247
1124.35	1238
1127.68	1341
1131.014	1402
1134.344	1375
1137.67	1294
1141.004	1232
1144.33	1176
1147.66	1192
1150.98	1144
1154.31	1163
1157.63	1178
1160.95	1137
1164.27	1103
1167.59	1154
1170.91	1148
1174.22	1173
1177.54	1189
1180.85	1131
1184.16	1131
1187.47	1119
1190.78	1119
1194.09	1099
1197.4	1160
1200.71	1165
1204.01	1166
1207.31	1117
1210.615	1123
1213.92	1128
1217.22	1126
1220.52	1173
1223.81	1197
1227.11	1239
1230.4	1224
1233.7	1206
1236.99	1225
1240.28	1129
1243.57	1103
1246.86	1086
1250.15	1043
1253.43	1089
1256.71	1094
1259.999	1037
1263.28	1084
1266.56	1067
1269.84	1059
1273.12	1063
1276.4	1070
1279.67	1078
1282.95	1090
1286.22	1099
1289.49	1093
1292.76	1114
1296.03	1060
1299.304	1106
1302.57	1073
1305.84	1115
1309.1	1093
1312.37	1075
1315.63	1051
1318.89	1128
1322.15	1150
1325.41	1112
1328.67	1126
1331.92	1215
1335.18	1240
1338.43	1185
1341.68	1169
1344.93	1211
1348.18	1139
1351.43	1071
1354.68	1130
1357.93	1128
1361.17	1110
1364.42	1172
1367.66	1165
1370.9	1192
1374.14	1174
1377.38	1119
1380.616	1139
1383.85	1089
1387.09	1107
1390.322	1079
1393.55	1093
1396.79	1062
1400.02	1054
1403.25	1145
1406.47	1049
1409.7	1168
1412.93	1215
1416.15	1200
1419.38	1131
1422.6	1059
1425.82	1083
1429.04	1017
1432.25	1063
1435.47	1021
1438.69	1002
1441.9	1004
1445.12	952
1448.33	965
1451.54	967
1454.75	964
1457.96	990
1461.17	980
1464.37	989
1467.58	965
1470.78	940
1473.98	952
1477.19	961
1480.39	955
1483.58	970
1486.78	1012
1489.98	1009
1493.17	1100
1496.37	1061
1499.563	1031
1502.75	985
1505.94	956
1509.14	919
1512.32	883
1515.51	904
1518.7	950
1521.88	906
1525.06	928
1528.25	951
1531.43	955
1534.61	969
1537.79	967
1540.96	999
1544.14	993
1547.32	1063
1550.489	1089
1553.66	1198
1556.83	1309
1560	1521
1563.17	1675
1566.34	2159
1569.51	2663
1572.675	3424
1575.84	4148
1579	4810
1582.16	5042
1585.32	4436
1588.49	3532
1591.64	2819
1594.8	2280
1597.96	1864
1601.11	1483
1604.27	1268
1607.42	1185
1610.57	1098
1613.72	1098
1616.871	1080
1620.02	1052
1623.17	933
1626.31	920
1629.46	916
1632.6	850
1635.74	844
1638.88	875
1642.02	834
1645.16	805
1648.3	830
1651.44	807
1654.57	769
1657.7	782
1660.84	770
1663.97	773
1667.1	746
1670.23	745
1673.36	763
1676.48	771
1679.61	705
1682.74	746
1685.86	715
1688.98	735
1692.1	738
1695.22	706
1698.34	684
1701.46	690
1704.58	726
1707.69	725
1710.81	712
1713.92	717
1717.03	705
1720.14	657
1723.25	695
1726.36	690
1729.47	687
1732.58	647
1735.68	680
1738.78	689
1741.89	703
1744.99	665
1748.09	700
1751.19	673
1754.29	678
1757.39	708
1760.48	735
1763.58	695
1766.67	700
1769.76	700
1772.85	693
1775.94	698
1779.03	681
1782.12	645
1785.21	702
1788.29	679
1791.379	677
1794.46	719
1797.54	686
1800.63	632
1803.7	687
1806.78	666
1809.86	640
1812.94	664
1816.01	680
1819.09	672
1822.16	679
1825.23	702
1828.31	739
1831.38	680
1834.44	674
1837.51	709
1840.58	702
1843.64	660
1846.71	742
1849.77	750
1852.83	737
1855.89	776
1858.95	720
1862.01	745
1865.07	746
1868.125	712
1871.18	647
1874.23	679
1877.29	632
1880.34	658
1883.39	683
1886.44	653
1889.49	642
1892.54	682
1895.58	655
1898.63	647
1901.67	671
1904.72	643
1907.76	614
1910.8	662
1913.84	626
1916.88	631
1919.91	635
1922.95	628
1925.98	602
1929.02	625
1932.052	622
1935.08	597
1938.11	648
1941.14	613
1944.17	640
1947.2	609
1950.23	639
1953.25	635
1956.28	655
1959.3	638
1962.32	667
1965.34	673
1968.36	650
1971.38	642
1974.4	697
1977.41	678
1980.43	645
1983.44	702
1986.46	685
1989.469	701
1992.48	627
1995.49	642
1998.498	609
2001.51	637
2004.512	652
2007.52	641
2010.52	606
2013.52	655
2016.527	610
2019.53	594
2022.528	605
2025.527	594
2028.52	571
2031.52	560
2034.52	589
2037.51	597
2040.51	574
2043.5	606
2046.49	568
2049.478	546
2052.47	555
2055.46	564
2058.44	577
2061.43	570
2064.41	588
2067.4	549
2070.38	569
2073.36	555
2076.34	581
2079.32	542
2082.3	586
2085.28	582
2088.25	563
2091.23	565
2094.2	558
2097.17	549
2100.146	590
2103.12	533
2106.09	575
2109.05	586
2112.02	582
2114.99	522
2117.95	557
2120.92	594
2123.88	531
2126.844	540
2129.804	566
2132.76	567
2135.72	557
2138.68	597
2141.64	552
2144.59	553
2147.55	536
2150.5	533
2153.46	541
2156.41	546
2159.36	526
2162.31	515
2165.25	533
2168.2	546
2171.15	541
2174.09	503
2177.04	531
2179.98	497
2182.92	484
2185.86	515
2188.8	526
2191.74	507
2194.68	507
2197.61	528
2200.551	511
2203.48	540
2206.418	528
2209.35	564
2212.28	538
2215.21	508
2218.14	528
2221.07	533
2224	550
2226.92	526
2229.85	542
2232.77	536
2235.69	579
2238.62	560
2241.54	548
2244.46	527
2247.38	570
2250.29	514
2253.21	534
2256.13	517
2259.04	559
2261.95	538
2264.87	542
2267.78	518
2270.69	542
2273.6	524
2276.51	567
2279.41	536
2282.32	523
2285.22	545
2288.13	526
2291.031	512
2293.93	517
2296.834	523
2299.73	502
2302.63	501
2305.53	520
2308.43	495
2311.32	501
2314.22	522
2317.11	530
2320.01	505
2322.9	504
2325.79	536
2328.676	539
2331.56	514
2334.45	525
2337.34	498
2340.23	519
2343.11	531
2345.99	510
2348.87	532
2351.76	548
2354.64	526
2357.52	505
2360.39	555
2363.27	520
2366.15	531
2369.02	572
2371.9	541
2374.77	564
2377.64	550
2380.51	551
2383.38	521
2386.25	500
2389.12	556
2391.99	554
2394.853	551
2397.72	537
2400.58	542
2403.45	545
2406.31	563
2409.17	584
2412.03	563
2414.89	557
2417.74	576
2420.6	565
2423.46	598
2426.31	630
2429.16	606
2432.02	625
2434.87	706
2437.72	712
2440.57	758
2443.42	829
2446.27	904
2449.11	992
2451.96	1032
2454.8	1000
2457.65	988
2460.49	920
2463.33	950
2466.17	886
2469.01	806
2471.85	785
2474.69	779
2477.53	747
2480.36	729
2483.19	713
2486.03	690
2488.86	694
2491.69	672
2494.52	638
2497.35	672
2500.18	621
2503.01	632
2505.84	614
2508.66	656
2511.49	586
2514.31	589
2517.13	617
2519.95	580
2522.78	611
2525.59	620
2528.41	591
2531.23	584
2534.05	603
2536.86	625
2539.68	623
2542.491	590
2545.3	566
2548.12	601
2550.93	661
2553.74	611
2556.54	602
2559.35	620
2562.16	635
2564.96	616
2567.77	575
2570.57	624
2573.375	629
2576.177	639
2578.978	603
2581.78	654
2584.58	654
2587.375	649
2590.17	676
2592.97	662
2595.762	721
2598.56	705
2601.35	713
2604.14	770
2606.93	770
2609.72	848
2612.51	821
2615.3	869
2618.09	898
2620.87	979
2623.658	1001
2626.44	1107
2629.22	1234
2632.01	1398
2634.79	1491
2637.57	1718
2640.35	2047
2643.13	2419
2645.9	2830
2648.68	3340
2651.45	4024
2654.23	4952
2657	6198
2659.77	7540
2662.55	8900
2665.32	10363
2668.09	11637
2670.85	12515
2673.62	12889
2676.39	12571
2679.15	11748
2681.92	10764
2684.68	9386
2687.45	8208
2690.21	7102
2692.968	5849
2695.73	4937
2698.49	4073
2701.24	3493
2704.001	2990
2706.76	2561
2709.51	2269
2712.27	1979
2715.02	1669
2717.772	1562
2720.52	1457
2723.27	1338
2726.02	1178
2728.77	1085
2731.52	976
2734.26	909
2737.01	945
2739.75	868
2742.5	789
2745.24	781
2747.98	694
2750.72	732
2753.46	706
2756.2	698
2758.939	622
2761.68	628
2764.41	618
2767.15	606
2769.88	609
2772.613	597
2775.345	583
2778.08	541
2780.81	594
2783.54	551
2786.26	547
2788.991	551
2791.72	595
2794.44	545
2797.17	514
2799.89	555
2802.61	478
2805.334	524
2808.05	497
2810.77	552
2813.49	511
2816.21	518
2818.93	538
2821.65	537
2824.36	497
2827.07	511
2829.79	485
2832.5	476
2835.21	519
2837.92	466
2840.63	480
2843.34	508
2846.05	498
2848.75	516
2851.46	466
2854.16	484
2856.87	495
2859.57	483
2862.272	468
2864.97	469
2867.67	458
2870.37	485
2873.07	465
2875.77	455
2878.46	451
2881.16	498
2883.85	429
2886.55	435
2889.24	433
2891.93	450
2894.62	426
2897.311	419
2900	427
2902.688	435
2905.37	449
2908.061	425
2910.75	445
2913.43	419
2916.11	438
2918.8	434
2921.48	463
2924.16	404
2926.84	439
2929.52	417
2932.19	432
2934.87	420
2937.55	434
2940.22	399
2942.89	399
2945.57	416
2948.24	445
2950.91	438
2953.58	386
2956.25	382
2958.92	415
2961.59	422
2964.25	415
2966.92	389
2969.59	433
2972.25	401
2974.91	389
2977.57	378
2980.24	410
2982.9	381
2985.55	391
2988.21	374
2990.87	400
2993.53	426
2996.18	388
2998.84	395
3001.49	386
3004.14	409
3006.8	384
3009.45	402
3012.1	381
3014.75	398
3017.396	369
3020.04	404
3022.69	367
3025.34	413
3027.98	403
3030.63	366
3033.27	385
3035.91	373
3038.55	383
3041.19	393
3043.83	364
3046.47	356
3049.11	401
3051.74	361
3054.38	350
3057.01	382
3059.65	385
3062.281	394
3064.91	397
3067.55	388
3070.17	364
3072.8	364
3075.43	410
3078.06	372
3080.69	398
3083.31	385
3085.94	380
3088.563	377
3091.19	378
3093.81	379
3096.43	379
3099.05	386
3101.67	359
3104.29	399
3106.91	376
3109.52	371
3112.14	355
3114.75	355
3117.37	353
3119.98	374
3122.59	361
3125.21	330
3127.82	346
3130.427	345
3133.04	357
3135.64	341
3138.251	366
3140.86	383
3143.46	357
3146.07	344
3148.67	376
3151.27	346
3153.874	346
3156.48	347
3159.08	334
3161.67	373
3164.27	359
3166.87	390
3169.47	395
3172.06	357
3174.66	362
3177.251	376
3179.85	364
3182.437	340
3185.03	364
3187.62	359
3190.21	368
3192.8	356
3195.38	332
3197.97	354
3200.56	331
3203.14	352
3205.73	361
3208.31	323
3210.89	369
3213.47	387
3216.054	378
3218.63	395
3221.21	436
3223.791	425
3226.37	487
3228.95	515
3231.52	605
3234.1	705
3236.67	898
3239.241	1023
3241.81	1021
3244.38	1008
3246.96	1022
3249.52	895
3252.09	750
3254.66	731
3257.23	571
3259.79	484
3262.36	415
3264.92	390
3267.49	377
3270.05	377
3272.61	343
3275.17	365
3277.73	347
3280.29	347
3282.85	334
3285.41	344
3287.96	341
3290.52	329
3293.07	311
3295.63	351
3298.18	318
3300.73	318
3303.28	310
3305.83	297
3308.38	329
3310.93	337
3313.479	335
3316.03	304
3318.57	319
3321.12	326
3323.66	300
3326.21	324
3328.75	312
3331.29	305
3333.83	305
3336.37	310
3338.91	303
3341.448	299
3343.99	312
3346.52	283
3349.06	295
3351.593	287
3354.13	314
3356.66	321
3359.19	299
3361.72	306
3364.25	275
3366.79	325
3369.31	305
3371.84	294
3374.37	307
3376.9	309
3379.42	309
3381.95	291
3384.47	320
3386.99	333
3389.52	303
3392.04	289
3394.56	314
3397.08	309
3399.6	323
3402.12	319
3404.63	298
3407.15	300
3409.66	326
3412.179	292
3414.69	329
3417.21	322
3419.72	309
3422.23	334
3424.74	316
3427.25	327
3429.76	328
3432.27	308
3434.77	291
3437.28	291
3439.79	300
3442.29	328
3444.79	303
3447.3	297
3449.8	319
3452.3	288
3454.8	299
3457.3	297
3459.8	299
3462.3	293
3464.79	288
3467.29	277
3469.79	288
3472.28	276
3474.77	294
3477.27	303
3479.76	285
3482.25	269
3484.741	284
3487.23	268
3489.72	274
3492.21	272
3494.69	262
3497.18	297
3499.666	296
3502.15	271
3504.63	267
3507.12	277
3509.6	293
3512.08	296
3514.56	289
3517.04	268
3519.521	315
3522	289
3524.48	283
3526.95	296
3529.43	285
3531.9	280
3534.38	270
3536.85	290
3539.32	299
3541.79	245
3544.26	308
3546.73	284
3549.2	281
3551.67	258
3554.14	275
3556.61	279
3559.07	272
3561.54	304
3564	278
3566.46	272
3568.93	314
3571.39	292
3573.85	278
3576.31	281
3578.77	251
3581.23	293
3583.68	276
3586.14	254
3588.6	286
3591.052	270
3593.51	289
3595.96	312
3598.41	262
3600.865	291
3603.32	294
3605.77	261
3608.22	265
3610.665	306
3613.11	272
3615.56	277
3618.01	253
3620.45	278
3622.896	263
3625.34	259
3627.78	264
3630.22	242
3632.67	283
3635.11	273
3637.55	262
3639.99	248
3642.42	262
3644.86	267
3647.3	251
3649.73	268
3652.17	260
3654.6	264
3657.04	233
3659.47	259
3661.9	265