File: data/SEM_Raman_Data/KZPd_170926-2/KZPd_170926-2_Raman1.txt
672.793	2251.78
676.3017	2355.51
679.809	2163.32
683.316	1921.23
686.818	1664.2
690.322	1433.323
693.824	1367.58
697.325	970.9649
700.825	890.499
704.321	739.146
707.8175	553.002
711.313	275.032
714.807	303.248
718.3	153.658
721.789	181.231
725.279	52.0593
728.768	15.1098
732.255	90.391
735.7392	106.875
739.224	28.6488
742.707	-3.32017
746.187	9.94189
749.668	3.51696
753.147	41.3779
756.623	47.4957
760.1	229.951
763.575	210.717
767.047	254.766
770.519	400.177
773.9906	430.922
777.4585	664.976
780.927	432.414
784.394	690.211
787.858	773.34
791.323	677.877
794.784	1025.76
798.246	1130.07
801.705	1117.74
805.164	1208.84
808.6217	1230.36
812.076	1460.26
815.532	1617.62
818.984	1719.38
822.436	1566.61
825.885	1685.25
829.335	1731.38
832.782	1929.93
836.229	1740.98
839.673	1613.48
843.118	1568.48
846.559	1396.94
849.999	1505.88
853.44	1394.36
856.878	1489.309
860.316	1306.8
863.75	1448.77
867.186	1531.3
870.618	1525.32
874.049	1518.88
877.48	1610
880.909	1611.65
884.335	1709.84
887.763	1753.62
891.187	1806.93
894.612	1825.83
898.034	1806.28
901.454	1989.31
904.873	2061.93
908.293	2123.15
911.709	2214.95
915.124	2399.34
918.54	2396.36
921.953	2626.96
925.364	2919.18
928.774	3365.01
932.184	3971.49
935.592	5852.58
938.998	8808.3
942.402	12219.652
945.8078	16168.669
949.21	18518.313
952.611	19028.604
956.01	18475.553
959.409	18163.158
962.805	18291.428
966.203	18241.385
969.597	18314.994
972.99	18680.279
976.3822	18834.244
979.773	18812.893
983.162	18949.23
986.55	18712.258
989.936	18275.982
993.324	16736.426
996.708	13779.553
1000.09	10525.388
1003.47	8009.93
1006.852	6496.19
1010.23	5618.17
1013.61	5130.87
1016.98	4420.3
1020.36	3851.45
1023.73	3260.34
1027.11	2908.96
1030.48	2360.32
1033.85	1834.428
1037.22	1550.28
1040.58	1155.87
1043.95	683.224
1047.31	591.33
1050.68	455.193
1054.04	349.817
1057.4	289.206
1060.76	243.347
1064.12	213.273
1067.47	184.973
1070.83	166.449
1074.18	92.7031
1077.54	186.739
1080.89	157.5596
1084.24	-0.832665
1087.59	52.5509
1090.937	94.7418
1094.28	137.727
1097.63	53.5102
1100.97	124.094
1104.32	82.4803
1107.66	80.6588
1111	122.658
1114.34	178.469
1117.68	164.091
1121.01	134.517
1124.35	39.7722
1127.68	225.847
1131.014	145.743
1134.344	158.452
1137.67	150
1141.004	206.3757
1144.33	130.571
1147.66	239.611
1150.98	151.485
1154.31	74.1857
1157.63	85.7367
1160.95	100.128
1164.27	148.352
1167.59	166.432
1170.91	155.36
1174.22	150.125
1177.54	97.7523
1180.85	76.2215
1184.16	141.5556
1187.47	56.74543
1190.78	118.784
1194.09	86.6922
1197.4	99.45208
1200.71	108.085
1204.01	102.5731
1207.31	88.9381
1210.615	128.161
1213.92	162.264
1217.22	180.229
1220.52	214.076
1223.81	0.788938
1227.11	64.3866
1230.4	142.853
1233.7	66.208
1236.99	177.4342
1240.28	75.5426
1243.57	88.5434
1246.86	87.4203
1250.15	136.192
1253.43	87.84256
1256.71	184.383
1259.999	245.8214
1263.28	186.143
1266.56	228.366
1269.84	159.475
1273.12	279.478
1276.4	278.387
1279.67	272.186
1282.95	244.883
1286.22	219.481
1289.49	311.988
1292.76	229.39
1296.03	272.695
1299.304	378.914
1302.57	410.029
1305.84	337.052
1309.1	395.9823
1312.37	567.83
1315.63	537.58
1318.89	715.241
1322.15	739.814
1325.41	987.299
1328.67	1290.71
1331.92	1565.02
1335.18	2183.25
1338.43	2827.4
1341.68	3917.46
1344.93	4863.45
1348.18	5660.35
1351.43	5835.18
1354.68	5564.93
1357.93	4761.59
1361.17	3722.18
1364.42	2920.7
1367.66	2069.14
1370.9	1613.5
1374.14	1329.79
1377.38	1019.01
1380.616	917.149
1383.85	712.221
1387.09	664.222
1390.322	610.153
1393.55	661.015
1396.79	509.807
1400.02	552.532
1403.25	493.189
1406.47	514.78
1409.7	389.3042
1412.93	412.763
1416.15	342.157
1419.38	384.486
1422.6	265.753
1425.82	313.956
1429.04	262.096
1432.25	304.169
1435.47	424.187
1438.69	354.144
1441.9	271.04
1445.12	270.877
1448.33	347.656
1451.54	328.369
1454.75	387.031
1457.96	384.635
1461.17	301.182
1464.37	348.673
1467.58	302.101
1470.78	311.481
1473.98	295.805
1477.19	258.074
1480.39	307.284
1483.58	295.445
1486.78	284.554
1489.98	246.61
1493.17	266.607
1496.37	181.559
1499.563	267.458
1502.75	223.301
1505.94	205.099
1509.14	275.847
1512.32	221.539
1515.51	360.187
1518.7	325.786
1521.88	338.33
1525.06	322.832
1528.25	302.28
1531.43	408.685
1534.61	413.044
1537.79	420.3494
1540.96	403.614
1544.14	386.826
1547.32	448.998
1550.489	461.119
1553.66	558.199
1556.83	633.229
1560	711.22
1563.17	827.16
1566.34	1032.062
1569.51	1270.91
1572.675	1639.73
1575.84	2144.49
1579	3039.22
1582.16	4354.9
1585.32	6320.54
1588.49	9707.14
1591.64	15018.688
1594.8	21536.203
1597.96	24895.672
1601.11	20951.1
1604.27	12973.489
1607.42	6810.835
1610.57	3858.14
1613.72	2504.408
1616.871	1801.63
1620.02	1589.82
1623.17	1312.964
1626.31	1380.07
1629.46	1269.13
1632.6	1235.16
1635.74	995.151
1638.88	784.099
1642.02	682.008
1645.16	512.884
1648.3	408.717
1651.44	450.511
1654.57	483.268
1657.7	260.988
1660.84	335.674
1663.97	337.318
1667.1	291.926
1670.23	337.496
1673.36	230.03
1676.48	203.5271
1679.61	226.992
1682.74	142.416
1685.86	239.804
1688.98	163.156
1692.1	155.473
1695.22	210.754
1698.34	159.999
1701.46	121.208
1704.58	126.383
1707.69	96.5219
1710.81	62.6264
1713.92	87.6959
1717.03	154.731
1720.14	-0.268858
1723.25	122.697
1726.36	43.6288
1729.47	49.5262
1732.58	123.3895
1735.68	68.2192
1738.78	68.0149
1741.89	106.777
1744.99	162.505
1748.09	136.201
1751.19	111.8626
1754.29	166.491
1757.39	151.087
1760.48	203.646
1763.58	153.176
1766.67	216.673
1769.76	168.137
1772.85	146.5696
1775.94	186.969
1779.03	146.333
1782.12	189.668
1785.21	83.9717
1788.29	215.243
1791.379	204.482
1794.46	208.687
1797.54	165.863
1800.63	239.007
1803.7	178.117
1806.78	238.199
1809.86	236.249
1812.94	209.269
1816.01	196.254
1819.09	134.2113
1822.16	242.138
1825.23	172.03
1828.31	190.896
1831.38	158.73
1834.44	185.531
1837.51	266.305
1840.58	269.046
1843.64	227.759
1846.71	264.443
1849.77	250.093
1852.83	327.717
1855.89	267.307
1858.95	232.871
1862.01	286.402
1865.07	406.907
1868.125	366.38
1871.18	352.826
1874.23	258.24
1877.29	318.628
1880.34	348.983
1883.39	314.313
1886.44	405.611
1889.49	266.883
1892.54	344.123
1895.58	249.338
1898.63	246.521
1901.67	263.676
1904.72	134.805
1907.76	207.903
1910.8	225.976
1913.84	246.018
1916.88	208.032
1919.91	169.021
1922.95	229.979
1925.98	186.909
1929.02	174.815
1932.052	241.69
1935.08	229.538
1938.11	202.359
1941.14	232.155
1944.17	261.921
1947.2	202.6597
1950.23	163.372
1953.25	267.059
1956.28	235.717
1959.3	267.349
1962.32	251.954
1965.34	261.532
1968.36	316.086
1971.38	311.612
1974.4	315.111
1977.41	253.5836
1980.43	233.03
1983.44	242.4511
1986.46	200.846
1989.469	281.217
1992.48	420.561
1995.49	341.878
1998.498	321.17
2001.51	372.437
2004.512	344.678
2007.52	331.894
2010.52	352.0845
2013.52	341.25
2016.527	316.391
2019.53	300.506
2022.528	261.597
2025.527	280.663
2028.52	244.705
2031.52	274.722
2034.52	333.714
2037.51	189.683
2040.51	196.627
2043.5	186.546
2046.49	220.442
2049.478	194.312
2052.47	228.16
2055.46	152.9841
2058.44	124.785
2061.43	143.562
2064.41	188.315
2067.4	153.0452
2070.38	148.75
2073.36	154.434
2076.34	161.094
2079.32	190.732
2082.3	152.347
2085.28	95.9371
2088.25	133.506
2091.23	130.053
2094.2	158.576
2097.17	171.078
2100.146	126.557
2103.12	155.015
2106.09	108.449
2109.05	166.862
2112.02	165.254
2114.99	194.622
2117.95	230.9706
2120.92	233.298
2123.88	167.601
2126.844	177.885
2129.804	169.146
2132.76	180.388
2135.72	173.609
2138.68	161.807
2141.64	106.987
2144.59	211.143
2147.55	181.281
2150.5	156.397
2153.46	94.49437
2156.41	177.5694
2159.36	143.626
2162.31	141.661
2165.25	114.678
2168.2	142.674
2171.15	128.651
2174.09	164.607
2177.04	111.546
2179.98	139.463
2182.92	34.3626
2185.86	1.241587
2188.8	19.1014
2191.74	40.9443
2194.68	58.7666
2197.61	142.57
2200.551	37.3568
2203.48	65.1233
2206.418	-1.12817
2209.35	101.603
2212.28	66.3154
2215.21	76.0093
2218.14	50.687
2221.07	115.345
2224	157.986
2226.92	133.609
2229.85	147.217
2232.77	163.805
2235.69	137.3764
2238.62	132.931
2241.54	239.4678
2244.46	202.99
2247.38	193.494
2250.29	180.981
2253.21	165.4514
2256.13	194.9057
2259.04	168.3438
2261.95	201.767
2264.87	136.173
2267.78	202.563
2270.69	142.938
2273.6	170.296
2276.51	172.639
2279.41	195.967
2282.32	192.279
2285.22	194.577
2288.13	195.8588
2291.031	232.126
2293.93	154.378
2296.834	166.616
2299.73	146.839
2302.63	154.048
2305.53	203.2422
2308.43	143.422
2311.32	137.588
2314.22	113.74
2317.11	139.878
2320.01	119.003
2322.9	149.113
2325.79	107.21
2328.676	132.294
2331.56	125.364
2334.45	153.422
2337.34	149.466
2340.23	156.498
2343.11	33.5155
2345.99	125.522
2348.87	175.515
2351.76	206.496
2354.64	167.464
2357.52	161.421
2360.39	112.365
2363.27	122.2981
2366.15	131.218
2369.02	141.127
2371.9	157.025
2374.77	176.91
2377.64	229.784
2380.51	182.648
2383.38	222.4993
2386.25	199.341
2389.12	233.171
2391.99	254.99
2394.853	238.799
2397.72	253.598
2400.58	270.385
2403.45	256.163
2406.31	291.9303
2409.17	304.688
2412.03	353.435
2414.89	288.173
2417.74	340.901
2420.6	341.6196
2423.46	316.328
2426.31	390.028
2429.16	453.718
2432.02	446.4
2434.87	452.072
2437.72	558.736
2440.57	631.39
2443.42	664.037
2446.27	850.674
2449.11	984.303
2451.96	1250.92
2454.8	1508.537
2457.65	1567.14
2460.49	1815.74
2463.33	1861.33
2466.17	1828.91
2469.01	1802.48
2471.85	1683.05
2474.69	1500.61
2477.53	1427.16
2480.36	1295.7
2483.19	1162.24
2486.03	1126.77
2488.86	972.294
2491.69	929.811
2494.52	927.321
2497.35	819.825
2500.18	761.3233
2503.01	652.814
2505.84	666.299
2508.66	631.778
2511.49	617.2514
2514.31	544.719
2517.13	568.18
2519.95	591.6369
2522.78	544.0874
2525.59	480.532
2528.41	517.972
2531.23	527.407
2534.05	587.837
2536.86	531.261
2539.68	518.681
2542.491	503.096
2545.3	475.507
2548.12	478.913
2550.93	472.314
2553.74	504.7114
2556.54	495.104
2559.35	533.493
2562.16	480.878
2564.96	485.259
2567.77	567.636
2570.57	512.0097
2573.375	540.379
2576.177	522.745
2578.978	523.108
2581.78	578.467
2584.58	584.824
2587.375	595.177
2590.17	583.527
2592.97	645.874
2595.762	686.218
2598.56	650.56
2601.35	723.899
2604.14	830.235
2606.93	857.569
2609.72	876.9
2612.51	979.23
2615.3	1031.56
2618.09	1183.88
2620.87	1272.2
2623.658	1301.53
2626.44	1509.84
2629.22	1797.16
2632.01	1989.48
2634.79	2202.79
2637.57	2680.11
2640.35	2857.42
2643.13	3479.73
2645.9	3986.04
2648.68	4715.34
2651.45	5500.65
2654.23	6580.96
2657	7952.26
2659.77	9477.57
2662.55	11574.869
2665.32	13679.171
2668.09	16633.475
2670.85	19431.775
2673.62	22676.076
2676.39	26479.377
2679.15	30133.68
2681.92	33363.98
2684.68	35852.281
2687.45	37230.582
2690.21	37419.883
2692.968	35789.184
2695.73	33073.484
2698.49	29759.785
2701.24	25635.086
2704.001	21791.389
2706.76	18185.691
2709.51	14976.994
2712.27	12231.298
2715.02	9981.6
2717.772	8371.91
2720.52	7022.21
2723.27	5910.52
2726.02	4818.83
2728.77	4219.14
2731.52	3641.45
2734.26	3125.76
2737.01	2711.07
2739.75	2387.39
2742.5	2099.7
2745.24	1911.02
2747.98	1641.34
2750.72	1446.66
2753.46	1334.98
2756.2	1276.3
2758.939	1038.63
2761.68	1118.95
2764.41	909.283
2767.15	861.614
2769.88	803.9458
2772.613	753.28
2775.345	633.617
2778.08	680.955
2780.81	616.296
2783.54	622.639
2786.26	520.9837
2788.991	501.331
2791.72	461.681
2794.44	432.033
2797.17	546.388
2799.89	400.745
2802.61	392.105
2805.334	393.466
2808.05	385.832
2810.77	363.199
2813.49	354.57
2816.21	373.943
2818.93	286.319
2821.65	320.697
2824.36	292.078
2827.07	303.463
2829.79	299.851
2832.5	314.241
2835.21	269.635
2837.92	340.031
2840.63	291.43
2843.34	257.833
2846.05	317.239
2848.75	249.6476
2851.46	308.06
2854.16	265.476
2856.87	323.894
2859.57	317.316
2862.272	274.742
2864.97	274.17
2867.67	277.603
2870.37	213.037
2873.07	291.477
2875.77	253.919
2878.46	227.365
2881.16	186.815
2883.85	281.267
2886.55	242.724
2889.24	165.183
2891.93	233.647
2894.62	125.114
2897.311	232.5851
2900	273.059
2902.688	258.538
2905.37	245.019
2908.061	268.505
2910.75	336.993
2913.43	248.486
2916.11	268.982
2918.8	244.482
2921.48	318.987
2924.16	281.494
2926.84	251.006
2929.52	322.52
2932.19	345.039
2934.87	342.561
2937.55	299.088
2940.22	362.618
2942.89	374.151
2945.57	359.69
2948.24	371.231
2950.91	362.776
2953.58	334.324
2956.25	275.878
2958.92	259.434
2961.59	260.994
2964.25	244.558
2966.92	210.125
2969.59	188.697
2972.25	155.272
2974.91	218.851
2977.57	169.4332
2980.24	99.0193
2982.9	138.609
2985.55	151.203
2988.21	80.7999
2990.87	70.4008
2993.53	70.0054
2996.18	91.6136
2998.84	72.2255
3001.49	56.8409
3004.14	63.4599
3006.8	77.0826
3009.45	85.7087
3012.1	69.3384
3014.75	97.9717
3017.396	97.6083
3020.04	58.2486
3022.69	120.892
3025.34	67.5394
3027.98	43.1898
3030.63	106.844
3033.27	55.5009
3035.91	70.1605
3038.55	52.8244
3041.19	34.4915
3043.83	0.161891
3046.47	95.8356
3049.11	104.511
3051.74	18.1912
3054.38	21.8742
3057.01	35.5604
3059.65	55.2485
3062.281	114.941
3064.91	30.6359
3067.55	66.3341
3070.17	31.034
3072.8	13.73796
3075.43	125.445
3078.06	22.1531
3080.69	66.8654
3083.31	89.5794
3085.94	66.2969
3088.563	75.0172
3091.19	69.739
3093.81	81.4643
3096.43	66.1911
3099.05	7.92149
3101.67	69.653
3104.29	58.38802
3106.91	67.1254
3109.52	69.8639
3112.14	110.605
3114.75	57.3486
3117.37	102.094
3119.98	41.8416
3122.59	18.5906
3125.21	61.3426
3127.82	93.0955
3130.427	91.8511
3133.04	27.6075
3135.64	82.3658
3138.251	72.1265
3140.86	31.8879
3143.46	29.6509
3146.07	67.41626
3148.67	38.1822
3151.27	39.94936
3153.874	41.7178
3156.48	31.4885
3159.08	85.2593
3161.67	87.0313
3164.27	69.8043
3166.87	78.5793
3169.47	74.3542
3172.06	74.1299
3174.66	55.9064
3177.251	88.6836
3179.85	80.4625
3182.437	60.2407
3185.03	90.0196
3187.62	113.799
3190.21	141.579
3192.8	102.358
3195.38	77.1385
3197.97	100.919
3200.56	103.699
3203.14	77.47921
3205.73	74.2593
3208.31	156.039
3210.89	146.819
3213.47	144.598
3216.054	111.377
3218.63	119.155
3221.21	159.9333
3223.791	216.71
3226.37	194.487
3228.95	307.263
3231.52	388.037
3234.1	444.811
3236.67	545.5835
3239.241	812.354
3241.81	988.124
3244.38	1342.89
3246.96	1564.66
3249.52	1813.43
3252.09	2090.19
3254.66	2104.95
3257.23	1984.71
3259.79	1762.47
3262.36	1431.23
3264.92	1185.98
3267.49	829.736
3270.05	588.486
3272.61	493.233
3275.17	340.979
3277.73	294.722
3280.29	227.4617
3282.85	154.2
3285.41	122.935
3287.96	88.6658
3290.52	60.395
3293.07	138.12
3295.63	115.843
3298.18	129.562
3300.73	75.2774
3303.28	80.99
3305.83	84.6979
3308.38	51.4032
3310.93	41.1035
3313.479	48.80101
3316.03	47.4935
3318.57	40.1828
3321.12	37.867
3323.66	19.5467
3326.21	53.223
3328.75	39.8937
3331.29	28.5607
3333.83	62.22208
3336.37	58.8785
3338.91	31.5309
3341.448	29.1772
3343.99	-0.18168
3346.52	16.4551
3349.06	48.0855
3351.593	29.7104
3354.13	66.3304
3356.66	-4.05619
3359.19	30.5512
3361.72	53.1527
3364.25	19.7482
3366.79	9.33821
3369.31	71.921
3371.84	45.4975
3374.37	21.0672
3376.9	76.6304
3379.42	37.1866
3381.95	25.7368
3384.47	50.279
3386.99	52.8143
3389.52	54.34201
3392.04	9.86252
3394.56	51.3754
3397.08	72.8806
3399.6	5.37815
3402.12	99.8677
3404.63	89.3492
3407.15	73.8226
3409.66	74.2878
3412.179	83.7445
3414.69	124.193
3417.21	79.6325
3419.72	77.0634
3422.23	40.4853
3424.74	79.8983
3427.25	71.3021
3429.76	125.696
3432.27	92.08107
3434.77	60.4567
3437.28	68.8227
3439.79	94.1788
3442.29	107.525
3444.79	117.861
3447.3	89.1868
3449.8	52.5026
3452.3	70.808
3454.8	58.102
3457.3	67.3861
3459.8	79.6594
3462.3	63.921
3464.79	77.1722
3467.29	46.4123
3469.79	84.641
3472.28	93.8574
3474.77	42.063
3477.27	86.2561
3479.76	80.4379
3482.25	40.60783
3484.741	65.7649
3487.23	72.9103
3489.72	52.0426
3492.21	41.1629
3494.69	41.2699
3497.18	49.3647
3499.666	14.446
3502.15	46.51466
3504.63	69.5695
3507.12	56.6115
3509.6	36.6395
3512.08	55.6543
3514.56	74.6547
3517.04	65.64109
3519.521	49.614
3522	78.5721
3524.48	62.5164
3526.95	-1.55441
3529.43	55.3601
3531.9	51.2604
3534.38	62.1453
3536.85	45.015
3539.32	33.8694
3541.79	60.7091
3544.26	105.533
3546.73	20.3405
3549.2	63.1326
3551.67	50.9092
3554.14	62.6693
3556.61	75.4132
3559.07	99.1406
3561.54	113.851
3564	15.5457
3566.46	75.2235
3568.93	76.884
3571.39	83.5273
3573.85	88.1533
3576.31	80.762
3578.77	66.35302
3581.23	62.9264
3583.68	57.4819
3586.14	37.0195
3588.6	77.5388
3591.052	82.0399
3593.51	65.5225
3595.96	47.9865
3598.41	45.4318
3600.865	22.8582
3603.32	106.266
3605.77	39.6537
3608.22	86.0224
3610.665	43.3718
3613.11	75.7012
3615.56	71.0111
3618.01	62.301
3620.45	57.5708
3622.896	25.8203
3625.34	75.0495
3627.78	16.258
3630.22	9.445858
3632.67	41.6129
3635.11	42.7589
3637.55	8.8837
3639.99	58.9873
3642.42	23.0693
3644.86	51.1297
3647.3	12.1684
3649.73	51.1852
3652.17	21.17985
3654.6	-0.847713
3657.04	1.10233
3659.47	35.0299
3661.9	35.9347