File: data/SEM_Raman_Data/KZPd_180423-2/sample.txt
672.793	2672
676.3017	2588
679.809	2479
683.316	2428
686.818	2421
690.322	2272
693.824	2236
697.325	2198
700.825	2202
704.321	2105
707.8175	2121
711.313	2119
714.807	2070
718.3	2028
721.789	1969
725.279	2005
728.768	1918
732.255	1966
735.7392	1990
739.224	1996
742.707	1991
746.187	1997
749.668	2052
753.147	2017
756.623	1949
760.1	1935
763.575	1962
767.047	1994
770.519	2001
773.9906	1957
777.4585	2025
780.927	1995
784.394	1990
787.858	1924
791.323	1993
794.784	2047
798.246	2087
801.705	2154
805.164	2078
808.6217	2006
812.076	2066
815.532	2052
818.984	2056
822.436	2052
825.885	2000
829.335	1925
832.782	1939
836.229	1912
839.673	1935
843.118	1881
846.559	1873
849.999	1881
853.44	1859
856.878	1861
860.316	1850
863.75	1888
867.186	1829
870.618	1858
874.049	1874
877.48	1902
880.909	1902
884.335	1883
887.763	1903
891.187	1887
894.612	1954
898.034	1848
901.454	1990
904.873	1955
908.293	1927
911.709	1992
915.124	2091
918.54	2193
921.953	2638
925.364	3216
928.774	4053
932.184	4788
935.592	5142
938.998	5024
942.402	5035
945.8078	5074
949.21	4962
952.611	4986
956.01	5123
959.409	5093
962.805	5135
966.203	5153
969.597	5210
972.99	5135
976.3822	4937
979.773	4548
983.162	3986
986.55	3237
989.936	2888
993.324	2522
996.708	2243
1000.09	2198
1003.47	2127
1006.852	1958
1010.23	1842
1013.61	1759
1016.98	1629
1020.36	1541
1023.73	1483
1027.11	1393
1030.48	1347
1033.85	1270
1037.22	1229
1040.58	1232
1043.95	1255
1047.31	1223
1050.68	1226
1054.04	1175
1057.4	1173
1060.76	1202
1064.12	1108
1067.47	1163
1070.83	1122
1074.18	1148
1077.54	1137
1080.89	1121
1084.24	1152
1087.59	1105
1090.937	1166
1094.28	1139
1097.63	1158
1100.97	1143
1104.32	1114
1107.66	1154
1111	1114
1114.34	1132
1117.68	1114
1121.01	1131
1124.35	1083
1127.68	1123
1131.014	1046
1134.344	1092
1137.67	1032
1141.004	1013
1144.33	1053
1147.66	1057
1150.98	1057
1154.31	1029
1157.63	1006
1160.95	1007
1164.27	1042
1167.59	1041
1170.91	993
1174.22	994
1177.54	1037
1180.85	1015
1184.16	1045
1187.47	1034
1190.78	991
1194.09	996
1197.4	977
1200.71	1018
1204.01	971
1207.31	997
1210.615	978
1213.92	965
1217.22	1006
1220.52	970
1223.81	984
1227.11	1011
1230.4	946
1233.7	1007
1236.99	1036
1240.28	895
1243.57	985
1246.86	949
1250.15	898
1253.43	900
1256.71	954
1259.999	907
1263.28	973
1266.56	943
1269.84	955
1273.12	875
1276.4	931
1279.67	901
1282.95	943
1286.22	867
1289.49	949
1292.76	921
1296.03	966
1299.304	943
1302.57	916
1305.84	878
1309.1	890
1312.37	890
1315.63	922
1318.89	933
1322.15	957
1325.41	936
1328.67	962
1331.92	1014
1335.18	988
1338.43	1079
1341.68	1074
1344.93	992
1348.18	1049
1351.43	972
1354.68	993
1357.93	912
1361.17	952
1364.42	955
1367.66	905
1370.9	974
1374.14	925
1377.38	932
1380.616	862
1383.85	883
1387.09	871
1390.322	877
1393.55	889
1396.79	884
1400.02	916
1403.25	911
1406.47	877
1409.7	864
1412.93	897
1416.15	855
1419.38	865
1422.6	868
1425.82	896
1429.04	925
1432.25	889
1435.47	885
1438.69	864
1441.9	842
1445.12	900
1448.33	870
1451.54	849
1454.75	878
1457.96	849
1461.17	838
1464.37	856
1467.58	821
1470.78	846
1473.98	851
1477.19	863
1480.39	802
1483.58	813
1486.78	865
1489.98	795
1493.17	862
1496.37	793
1499.563	857
1502.75	825
1505.94	856
1509.14	859
1512.32	868
1515.51	936
1518.7	828
1521.88	826
1525.06	897
1528.25	892
1531.43	906
1534.61	912
1537.79	966
1540.96	988
1544.14	997
1547.32	1096
1550.489	1228
1553.66	1383
1556.83	1614
1560	1968
1563.17	2657
1566.34	3627
1569.51	4942
1572.675	6439
1575.84	6872
1579	5949
1582.16	4188
1585.32	2858
1588.49	2044
1591.64	1690
1594.8	1387
1597.96	1225
1601.11	1088
1604.27	1034
1607.42	1004
1610.57	973
1613.72	991
1616.871	927
1620.02	908
1623.17	892
1626.31	814
1629.46	804
1632.6	798
1635.74	761
1638.88	823
1642.02	752
1645.16	770
1648.3	732
1651.44	712
1654.57	747
1657.7	749
1660.84	726
1663.97	723
1667.1	722
1670.23	718
1673.36	699
1676.48	683
1679.61	680
1682.74	733
1685.86	685
1688.98	649
1692.1	677
1695.22	688
1698.34	657
1701.46	670
1704.58	687
1707.69	632
1710.81	665
1713.92	670
1717.03	678
1720.14	643
1723.25	677
1726.36	648
1729.47	651
1732.58	681
1735.68	655
1738.78	638
1741.89	655
1744.99	652
1748.09	679
1751.19	674
1754.29	633
1757.39	684
1760.48	647
1763.58	663
1766.67	643
1769.76	647
1772.85	683
1775.94	684
1779.03	615
1782.12	693
1785.21	632
1788.29	664
1791.379	685
1794.46	656
1797.54	612
1800.63	665
1803.7	671
1806.78	645
1809.86	640
1812.94	612
1816.01	658
1819.09	662
1822.16	657
1825.23	648
1828.31	635
1831.38	622
1834.44	618
1837.51	637
1840.58	648
1843.64	658
1846.71	669
1849.77	672
1852.83	712
1855.89	714
1858.95	761
1862.01	729
1865.07	788
1868.125	727
1871.18	719
1874.23	754
1877.29	702
1880.34	680
1883.39	637
1886.44	642
1889.49	642
1892.54	655
1895.58	601
1898.63	602
1901.67	590
1904.72	612
1907.76	614
1910.8	582
1913.84	572
1916.88	620
1919.91	601
1922.95	597
1925.98	615
1929.02	581
1932.052	592
1935.08	580
1938.11	616
1941.14	583
1944.17	587
1947.2	612
1950.23	569
1953.25	599
1956.28	602
1959.3	596
1962.32	596
1965.34	579
1968.36	583
1971.38	624
1974.4	638
1977.41	633
1980.43	623
1983.44	618
1986.46	683
1989.469	655
1992.48	667
1995.49	658
1998.498	668
2001.51	730
2004.512	707
2007.52	682
2010.52	648
2013.52	661
2016.527	681
2019.53	653
2022.528	618
2025.527	619
2028.52	623
2031.52	556
2034.52	591
2037.51	545
2040.51	556
2043.5	566
2046.49	560
2049.478	577
2052.47	563
2055.46	555
2058.44	574
2061.43	514
2064.41	588
2067.4	563
2070.38	557
2073.36	527
2076.34	562
2079.32	530
2082.3	526
2085.28	523
2088.25	527
2091.23	524
2094.2	521
2097.17	566
2100.146	526
2103.12	539
2106.09	531
2109.05	528
2112.02	507
2114.99	528
2117.95	535
2120.92	509
2123.88	526
2126.844	521
2129.804	523
2132.76	515
2135.72	526
2138.68	561
2141.64	479
2144.59	537
2147.55	508
2150.5	474
2153.46	485
2156.41	510
2159.36	514
2162.31	503
2165.25	482
2168.2	509
2171.15	492
2174.09	461
2177.04	473
2179.98	526
2182.92	496
2185.86	505
2188.8	484
2191.74	501
2194.68	497
2197.61	541
2200.551	499
2203.48	514
2206.418	528
2209.35	515
2212.28	578
2215.21	519
2218.14	518
2221.07	530
2224	536
2226.92	530
2229.85	514
2232.77	540
2235.69	494
2238.62	477
2241.54	510
2244.46	518
2247.38	531
2250.29	553
2253.21	505
2256.13	506
2259.04	503
2261.95	534
2264.87	526
2267.78	514
2270.69	494
2273.6	474
2276.51	530
2279.41	570
2282.32	503
2285.22	508
2288.13	486
2291.031	502
2293.93	480
2296.834	558
2299.73	534
2302.63	499
2305.53	486
2308.43	496
2311.32	536
2314.22	511
2317.11	486
2320.01	470
2322.9	540
2325.79	501
2328.676	513
2331.56	496
2334.45	503
2337.34	533
2340.23	522
2343.11	489
2345.99	503
2348.87	492
2351.76	502
2354.64	530
2357.52	548
2360.39	508
2363.27	528
2366.15	497
2369.02	530
2371.9	490
2374.77	531
2377.64	544
2380.51	561
2383.38	526
2386.25	479
2389.12	507
2391.99	553
2394.853	558
2397.72	536
2400.58	536
2403.45	598
2406.31	596
2409.17	587
2412.03	580
2414.89	611
2417.74	591
2420.6	622
2423.46	720
2426.31	799
2429.16	882
2432.02	978
2434.87	1101
2437.72	1319
2440.57	1445
2443.42	1629
2446.27	1666
2449.11	1613
2451.96	1547
2454.8	1400
2457.65	1326
2460.49	1235
2463.33	1160
2466.17	1109
2469.01	1068
2471.85	982
2474.69	951
2477.53	929
2480.36	887
2483.19	787
2486.03	805
2488.86	781
2491.69	767
2494.52	752
2497.35	729
2500.18	666
2503.01	724
2505.84	699
2508.66	697
2511.49	674
2514.31	709
2517.13	687
2519.95	629
2522.78	646
2525.59	613
2528.41	674
2531.23	681
2534.05	658
2536.86	674
2539.68	680
2542.491	663
2545.3	661
2548.12	678
2550.93	660
2553.74	667
2556.54	654
2559.35	676
2562.16	643
2564.96	682
2567.77	674
2570.57	660
2573.375	693
2576.177	707
2578.978	684
2581.78	729
2584.58	734
2587.375	742
2590.17	741
2592.97	765
2595.762	802
2598.56	790
2601.35	829
2604.14	813
2606.93	893
2609.72	920
2612.51	880
2615.3	972
2618.09	996
2620.87	1090
2623.658	1090
2626.44	1221
2629.22	1336
2632.01	1456
2634.79	1596
2637.57	1817
2640.35	2072
2643.13	2482
2645.9	2849
2648.68	3414
2651.45	4273
2654.23	5245
2657	6751
2659.77	8633
2662.55	11163
2665.32	14546
2668.09	18831
2670.85	23445
2673.62	28510
2676.39	31856
2679.15	33710
2681.92	32338
2684.68	28906
2687.45	24402
2690.21	19787
2692.968	15307
2695.73	11593
2698.49	9318
2701.24	7349
2704.001	5881
2706.76	4685
2709.51	4014
2712.27	3347
2715.02	2880
2717.772	2454
2720.52	2175
2723.27	2030
2726.02	1849
2728.77	1662
2731.52	1476
2734.26	1397
2737.01	1301
2739.75	1188
2742.5	1122
2745.24	1041
2747.98	1044
2750.72	974
2753.46	915
2756.2	911
2758.939	866
2761.68	891
2764.41	807
2767.15	816
2769.88	775
2772.613	721
2775.345	736
2778.08	730
2780.81	693
2783.54	728
2786.26	691
2788.991	682
2791.72	656
2794.44	662
2797.17	618
2799.89	657
2802.61	621
2805.334	597
2808.05	598
2810.77	564
2813.49	624
2816.21	594
2818.93	591
2821.65	612
2824.36	574
2827.07	608
2829.79	611
2832.5	599
2835.21	590
2837.92	588
2840.63	577
2843.34	591
2846.05	578
2848.75	533
2851.46	538
2854.16	534
2856.87	558
2859.57	535
2862.272	558
2864.97	542
2867.67	512
2870.37	519
2873.07	519
2875.77	485
2878.46	505
2881.16	517
2883.85	487
2886.55	518
2889.24	495
2891.93	468
2894.62	513
2897.311	461
2900	496
2902.688	448
2905.37	463
2908.061	440
2910.75	462
2913.43	456
2916.11	454
2918.8	448
2921.48	445
2924.16	411
2926.84	452
2929.52	443
2932.19	459
2934.87	456
2937.55	413
2940.22	450
2942.89	414
2945.57	442
2948.24	430
2950.91	419
2953.58	426
2956.25	433
2958.92	441
2961.59	422
2964.25	431
2966.92	430
2969.59	421
2972.25	396
2974.91	395
2977.57	426
2980.24	404
2982.9	361
2985.55	419
2988.21	405
2990.87	421
2993.53	426
2996.18	381
2998.84	417
3001.49	372
3004.14	372
3006.8	402
3009.45	426
3012.1	414
3014.75	378
3017.396	404
3020.04	398
3022.69	396
3025.34	404
3027.98	376
3030.63	407
3033.27	364
3035.91	386
3038.55	370
3041.19	386
3043.83	403
3046.47	388
3049.11	366
3051.74	353
3054.38	353
3057.01	397
3059.65	381
3062.281	359
3064.91	392
3067.55	373
3070.17	380
3072.8	370
3075.43	383
3078.06	390
3080.69	366
3083.31	380
3085.94	337
3088.563	365
3091.19	363
3093.81	346
3096.43	380
3099.05	369
3101.67	347
3104.29	352
3106.91	363
3109.52	360
3112.14	372
3114.75	370
3117.37	355
3119.98	345
3122.59	367
3125.21	360
3127.82	375
3130.427	358
3133.04	361
3135.64	349
3138.251	359
3140.86	381
3143.46	360
3146.07	389
3148.67	358
3151.27	332
3153.874	371
3156.48	367
3159.08	396
3161.67	379
3164.27	330
3166.87	379
3169.47	410
3172.06	396
3174.66	379
3177.251	366
3179.85	348
3182.437	342
3185.03	364
3187.62	356
3190.21	348
3192.8	365
3195.38	386
3197.97	356
3200.56	389
3203.14	347
3205.73	377
3208.31	371
3210.89	359
3213.47	412
3216.054	470
3218.63	446
3221.21	533
3223.791	655
3226.37	754
3228.95	954
3231.52	1213
3234.1	1536
3236.67	1816
3239.241	1976
3241.81	1853
3244.38	1625
3246.96	1309
3249.52	915
3252.09	696
3254.66	525
3257.23	463
3259.79	456
3262.36	413
3264.92	366
3267.49	342
3270.05	313
3272.61	356
3275.17	341
3277.73	353
3280.29	367
3282.85	356
3285.41	344
3287.96	343
3290.52	311
3293.07	329
3295.63	329
3298.18	339
3300.73	325
3303.28	332
3305.83	338
3308.38	311
3310.93	328
3313.479	312
3316.03	304
3318.57	312
3321.12	313
3323.66	334
3326.21	323
3328.75	337
3331.29	291
3333.83	283
3336.37	331
3338.91	312
3341.448	299
3343.99	310
3346.52	296
3349.06	301
3351.593	312
3354.13	271
3356.66	286
3359.19	304
3361.72	290
3364.25	304
3366.79	285
3369.31	293
3371.84	321
3374.37	308
3376.9	306
3379.42	302
3381.95	333
3384.47	311
3386.99	289
3389.52	310
3392.04	279
3394.56	286
3397.08	287
3399.6	305
3402.12	312
3404.63	281
3407.15	308
3409.66	291
3412.179	339
3414.69	313
3417.21	283
3419.72	317
3422.23	308
3424.74	302
3427.25	298
3429.76	317
3432.27	289
3434.77	321
3437.28	311
3439.79	295
3442.29	295
3444.79	312
3447.3	295
3449.8	334
3452.3	282
3454.8	326
3457.3	287
3459.8	300
3462.3	261
3464.79	294
3467.29	301
3469.79	281
3472.28	271
3474.77	296
3477.27	282
3479.76	287
3482.25	299
3484.741	281
3487.23	271
3489.72	274
3492.21	284
3494.69	289
3497.18	296
3499.666	288
3502.15	262
3504.63	269
3507.12	297
3509.6	248
3512.08	252
3514.56	288
3517.04	276
3519.521	274
3522	279
3524.48	271
3526.95	276
3529.43	305
3531.9	288
3534.38	268
3536.85	271
3539.32	264
3541.79	266
3544.26	289
3546.73	288
3549.2	279
3551.67	295
3554.14	278
3556.61	290
3559.07	271
3561.54	281
3564	295
3566.46	277
3568.93	280
3571.39	264
3573.85	248
3576.31	286
3578.77	285
3581.23	277
3583.68	273
3586.14	284
3588.6	269
3591.052	257
3593.51	277
3595.96	268
3598.41	280
3600.865	289
3603.32	270
3605.77	259
3608.22	273
3610.665	274
3613.11	260
3615.56	267
3618.01	267
3620.45	250
3622.896	240
3625.34	261
3627.78	276
3630.22	268
3632.67	230
3635.11	252
3637.55	247
3639.99	272
3642.42	273
3644.86	246
3647.3	276
3649.73	251
3652.17	243
3654.6	248
3657.04	233
3659.47	244
3661.9	236